time,lin_acc_x,lin_acc_y,lin_acc_z,ang_vel_x,ang_vel_y,ang_vel_z
-0.11484352569623887,-0.09809551153220404,-9.689922480620156,-0.002396868092359317,-0.001065274707715252,0.006391648246291512
-1.0934060675662745,-0.3373528567327017,-8.400325389989472,-0.001864230738501691,-0.0013315933846440651,0.005859010892433886
0.303856828404632,-0.40673748684084604,-9.67795961336013,-0.003195824123145756,-0.0013315933846440651,0.009054835015579642
-0.14594698057230357,-0.1339841133122787,-9.72102593549622,-0.003462142800074569,0.005859010892433886,0.0071906042770779515
-0.14594698057230357,-0.18901330270839317,-9.455450282323667,-0.005592692215505073,-0.0026631867692881303,0.005592692215505073
-0.2703608000765624,-0.15790984783232845,-9.694707627524165,-0.0053263735385762605,-0.000266318676928813,0.006125329569362699
-0.18183558235237823,-0.23925734520049766,-9.488946310651738,-0.005859010892433886,0.006391648246291512,0.009587472369437269
-0.02871088142405972,0.15551727438032348,-9.795195712508374,-0.003195824123145756,-0.001065274707715252,0.0071906042770779515
-0.15073212747631354,-0.08613264427217916,-9.642071011580056,-0.001864230738501691,0.001065274707715252,0.006924285600149138
0.10048808498420903,-0.031103454876064696,-9.790410565604365,-0.0053263735385762605,-0.001864230738501691,0.003728461477003382
-0.22968705139247775,-0.2847162407885922,-9.551153220403867,-0.001597912061572878,0.001065274707715252,0.006125329569362699
-0.2583979328165375,-0.07895492391616422,-9.670781893004115,-0.005592692215505073,0.0013315933846440651,0.004261098830861008
-0.11484352569623887,-0.2249019044884678,-9.69710020097617,-0.001065274707715252,-0.001597912061572878,0.004527417507789821
-0.011962867260024884,0.04545889558809456,-9.517657192075797,-0.003728461477003382,0.000798956030786439,0.009587472369437269
-0.921140779021916,-0.928318499377931,-9.125275145946981,-0.004261098830861008,0.004793736184718634,0.005859010892433886
-0.10766580534022395,-0.19140587616039814,-9.615752703608,-0.001864230738501691,-0.004527417507789821,0.006391648246291512
0.14116183366829363,-0.04306632213608958,-9.802373432864389,-0.003994780153932195,0.003994780153932195,0.004527417507789821
-0.19619102306440808,-0.059814336300124414,-9.742559096564266,-0.004793736184718634,-0.001864230738501691,0.006657966923220325
-0.15073212747631354,-0.2153316106804479,-9.601397262895972,-0.006657966923220325,0.0026631867692881303,0.0053263735385762605
-0.2895013876926022,-0.11005837879222893,-9.601397262895972,-0.000798956030786439,0.001065274707715252,0.007456922954006764
-0.14594698057230357,-0.07416977701215428,-9.620537850512012,-0.004793736184718634,0.003728461477003382,0.002396868092359317
-0.16030242128433345,0.05263661594410949,-9.613360130155996,-0.003728461477003382,0.0026631867692881303,0.006125329569362699
-0.04545889558809456,0.047851469040099535,-9.768877404536319,-0.004527417507789821,-0.005060054861647447,0.005592692215505073
-0.15551727438032348,0.040673748684084604,-9.642071011580056,-0.006391648246291512,-0.000532637353857626,0.006125329569362699
-0.20336874342042302,-0.26557565317255244,-9.632500717772036,-0.002130549415430504,0.0013315933846440651,0.004261098830861008
-0.15073212747631354,-0.26318307972054744,-9.613360130155996,-0.0053263735385762605,-0.0,0.0071906042770779515
-0.02153316106804479,-0.1339841133122787,-9.66838931955211,-0.003462142800074569,0.000532637353857626,0.005859010892433886
-0.09809551153220404,-0.36367116470475647,-9.431524547803619,-0.004261098830861008,-0.000266318676928813,0.006924285600149138
-0.11484352569623887,-0.11723609914824386,-9.737773949660255,-0.004527417507789821,-0.001597912061572878,0.009321153692508456
-0.26557565317255244,0.004785146904009953,-9.630108144320031,-0.000798956030786439,0.007723241630935577,0.006657966923220325
-0.17226528854435832,-0.17944300890037326,-9.510479471719782,-0.005859010892433886,0.003728461477003382,0.00798956030786439
-0.07656235046415925,-0.19140587616039814,-9.804766006316395,-0.006125329569362699,-0.003195824123145756,0.006657966923220325
-0.25122021246052256,0.00717772035601493,-9.70188534788018,-0.004527417507789821,0.0026631867692881303,0.004793736184718634
-0.12202124605225381,-0.16748014164034836,-9.596612115991961,-0.003195824123145756,0.0013315933846440651,0.006924285600149138
0.5263661594410949,0.1339841133122787,-9.488946310651738,-0.004261098830861008,0.003462142800074569,0.00798956030786439
-0.05263661594410949,0.01435544071202986,-9.78323284524835,-0.003195824123145756,0.0013315933846440651,0.006391648246291512
-0.2703608000765624,-0.18901330270839317,-9.622930423964016,-0.004793736184718634,0.0026631867692881303,0.006391648246291512
-0.12919896640826875,0.1435544071202986,-9.431524547803619,-0.0026631867692881303,-0.0,0.005060054861647447
-0.21293903722844293,-0.17705043544836827,-9.632500717772036,-0.003994780153932195,0.001065274707715252,0.006657966923220325
-0.11005837879222893,-0.004785146904009953,-9.529620059335823,-0.006391648246291512,-0.0013315933846440651,0.005859010892433886
-0.1435544071202986,-0.102880658436214,-9.713848215140205,-0.003195824123145756,0.003195824123145756,0.0053263735385762605
-0.2536127859125275,-0.06699205665613935,-9.610967556703992,-0.0053263735385762605,0.003994780153932195,0.005592692215505073
-0.1531247009283185,-0.03349602832806967,-9.716240788592211,-0.003462142800074569,-0.002130549415430504,0.006391648246291512
-0.308641975308642,-0.09331036462819409,-9.563116087663891,-0.005859010892433886,0.001864230738501691,0.006391648246291512
-0.01435544071202986,-0.16987271509235335,-9.589434395635946,-0.003728461477003382,-0.000798956030786439,0.006125329569362699
-0.2464350655565126,-0.18662072925638817,-9.572686381471911,-0.006125329569362699,0.001065274707715252,0.006125329569362699
-0.21293903722844293,-0.04306632213608958,-9.575078954923917,-0.005859010892433886,0.002396868092359317,0.004527417507789821
-0.1650875681883434,-0.14833955402430857,-9.74495167001627,-0.001597912061572878,-0.0013315933846440651,0.0053263735385762605
-0.07895492391616422,-0.009570293808019907,-9.680352186812136,-0.006391648246291512,0.001065274707715252,0.004793736184718634
-0.13637668676428366,-0.19619102306440808,-9.713848215140205,-0.003728461477003382,-0.0013315933846440651,0.006125329569362699
-0.20336874342042302,0.011962867260024884,-9.732988802756244,-0.006125329569362699,0.001597912061572878,0.006924285600149138
-0.00717772035601493,-0.13159153986027372,-9.728203655852235,-0.003728461477003382,0.002130549415430504,0.0071906042770779515
-0.2536127859125275,0.04306632213608958,-9.819121447028424,-0.006125329569362699,0.005060054861647447,0.006924285600149138
-0.21772418413245287,-0.10527323188821898,-9.77844769834434,-0.003462142800074569,0.001597912061572878,0.0071906042770779515
0.0717772035601493,-0.12680639295626375,-9.515264618623792,-0.002929505446216943,-0.001864230738501691,0.006125329569362699
-0.20097616996841805,-0.18901330270839317,-9.347784476983444,-0.005060054861647447,0.000798956030786439,0.005859010892433886
-0.023925734520049768,-0.15790984783232845,-9.62532299741602,-0.003994780153932195,-0.000798956030786439,0.0053263735385762605
-0.00717772035601493,-0.12441381950425878,-9.510479471719782,-0.003195824123145756,-0.000532637353857626,0.005859010892433886
-0.16269499473633842,-0.016748014164034836,-9.72102593549622,-0.005060054861647447,0.000798956030786439,0.0071906042770779515
-0.308641975308642,-0.3804191788687913,-9.106134558330941,-0.006391648246291512,-0.006391648246291512,0.006125329569362699
-0.14594698057230357,-0.12441381950425878,-9.73538137620825,-0.005060054861647447,-0.001597912061572878,0.0071906042770779515
-0.09570293808019907,-0.031103454876064696,-9.570293808019906,-0.006391648246291512,0.000798956030786439,0.004527417507789821
-0.09091779117618912,-0.15551727438032348,-9.66838931955211,-0.0053263735385762605,0.000532637353857626,0.005592692215505073
-0.6555651258493637,0.205761316872428,-10.213896066609246,-0.0026631867692881303,-0.0026631867692881303,0.007723241630935577
-0.1746578619963633,0.0023925734520049767,-9.910039238204613,-0.00798956030786439,0.005060054861647447,0.005592692215505073
-0.12680639295626375,-0.1339841133122787,-9.670781893004115,-0.002929505446216943,0.002396868092359317,0.005592692215505073
-0.29189396114460714,-0.03349602832806967,-9.685137333716145,-0.004793736184718634,0.000798956030786439,0.0071906042770779515
0.05263661594410949,-0.03588860178007465,-9.709063068236196,-0.003994780153932195,-0.0,0.005592692215505073
0.20336874342042302,-0.11005837879222893,-9.969853574504738,-0.004793736184718634,-0.001864230738501691,0.004793736184718634
-0.09091779117618912,-0.20336874342042302,-9.84065460809647,-0.005060054861647447,0.000532637353857626,0.005060054861647447
-0.19140587616039814,-0.04306632213608958,-9.704277921332185,-0.004793736184718634,-0.000798956030786439,0.0053263735385762605
0.1339841133122787,-0.31342712221265195,-9.804766006316395,-0.003994780153932195,0.003728461477003382,0.007723241630935577
-0.11723609914824386,-0.004785146904009953,-9.579864101827926,0.001065274707715252,-0.0013315933846440651,0.005592692215505073
-0.7751937984496124,0.4521963824289406,-9.26404440616327,-0.005060054861647447,0.003462142800074569,0.006924285600149138
-0.22729447794047278,-0.205761316872428,-9.500909177911762,-0.004261098830861008,-0.001065274707715252,0.006924285600149138
-0.32299741602067183,-0.06938463010814433,-9.941142693080678,-0.0053263735385762605,0.000798956030786439,0.004261098830861008
-0.17226528854435832,-0.24882763900851756,-9.606182409799981,-0.004527417507789821,0.002130549415430504,0.005859010892433886
-0.10766580534022395,-0.009570293808019907,-9.68752990716815,-0.004527417507789821,-0.0,0.006391648246291512
-0.21293903722844293,-0.04545889558809456,-9.65881902574409,-0.0053263735385762605,0.004261098830861008,0.004793736184718634
-0.24164991865250265,-0.303856828404632,-9.381280505311514,0.000532637353857626,-0.000266318676928813,0.006924285600149138
-0.19140587616039814,0.019140587616039813,-9.689922480620156,-0.006391648246291512,-0.0,0.005592692215505073
-0.40434491338884104,-0.019140587616039813,-9.70667049478419,-0.003994780153932195,-0.000266318676928813,0.0071906042770779515
-0.11484352569623887,-0.17705043544836827,-9.484161163747727,-0.003994780153932195,-0.001597912061572878,0.0053263735385762605
-0.19140587616039814,-0.11005837879222893,-9.637285864676047,-0.006657966923220325,0.004261098830861008,0.006391648246291512
-0.308641975308642,0.026318307972054745,-9.682744760264141,-0.004793736184718634,-0.000266318676928813,0.00798956030786439
-0.12202124605225381,-0.023925734520049768,-9.76409225763231,-0.005060054861647447,0.002396868092359317,0.006924285600149138
-0.33256770982869177,-0.5359364532491148,-9.338214183175424,-0.003462142800074569,0.0026631867692881303,0.006391648246291512
-0.4928701311130252,-0.15073212747631354,-9.213800363671165,-0.0053263735385762605,0.001864230738501691,0.006391648246291512
-0.17705043544836827,-0.17944300890037326,-9.352569623887454,-0.001864230738501691,-0.001065274707715252,0.006125329569362699
-0.08374007082017418,-0.05263661594410949,-9.72102593549622,-0.003728461477003382,-0.000266318676928813,0.005592692215505073
0.1531247009283185,-0.16987271509235335,-9.828691740836444,-0.005060054861647447,-0.000532637353857626,0.004527417507789821
-0.12919896640826875,-0.02871088142405972,-9.589434395635946,-0.002396868092359317,0.000266318676928813,0.004793736184718634
-0.12202124605225381,-0.11962867260024883,-9.77366255144033,-0.0071906042770779515,0.001864230738501691,0.006391648246291512
-0.1339841133122787,-0.04545889558809456,-9.890898650588573,-0.0071906042770779515,0.003462142800074569,0.007723241630935577
-0.06938463010814433,-0.10766580534022395,-9.685137333716145,-0.003195824123145756,0.002396868092359317,0.004527417507789821
-0.19140587616039814,-0.09570293808019907,-9.790410565604365,-0.002396868092359317,-0.0,0.006657966923220325
-0.06938463010814433,0.0717772035601493,-9.529620059335823,-0.002929505446216943,-0.000532637353857626,0.005060054861647447
-0.16269499473633842,-0.102880658436214,-9.613360130155996,-0.001597912061572878,0.002130549415430504,0.004527417507789821
0.26079050626854244,0.0023925734520049767,-9.819121447028424,-0.003994780153932195,0.0013315933846440651,0.005060054861647447
-0.12202124605225381,-0.04545889558809456,-9.72102593549622,-0.002396868092359317,-0.002130549415430504,0.006391648246291512
-0.6531725523973586,-0.19619102306440808,-9.089386544166906,-0.002130549415430504,-0.001597912061572878,0.0053263735385762605
-0.031103454876064696,-0.06699205665613935,-9.780840271796345,-0.004527417507789821,-0.000798956030786439,0.007456922954006764
-0.09091779117618912,-0.06699205665613935,-9.795195712508374,-0.006391648246291512,0.001864230738501691,0.008522197661722016
-0.20336874342042302,0.026318307972054745,-9.699492774428176,-0.003462142800074569,0.002130549415430504,0.0071906042770779515
-0.07895492391616422,0.03828117523207963,-9.852617475356494,-0.001864230738501691,-0.000266318676928813,0.006924285600149138
-0.09570293808019907,-0.09091779117618912,-9.632500717772036,-0.006125329569362699,-0.001065274707715252,0.00798956030786439
-0.1842281558043832,-0.102880658436214,-9.699492774428176,-0.003462142800074569,-0.001065274707715252,0.005592692215505073
-0.18901330270839317,-0.16748014164034836,-9.716240788592211,-0.004527417507789821,-0.0026631867692881303,0.006657966923220325
-0.12680639295626375,-0.20097616996841805,-9.86936548952053,-0.005592692215505073,0.004261098830861008,0.00798956030786439
0.29189396114460714,0.05024404249210451,-9.682744760264141,-0.002130549415430504,-0.007456922954006764,0.007456922954006764
-0.16987271509235335,-0.06938463010814433,-9.7114556416882,-0.005859010892433886,-0.000266318676928813,0.005859010892433886
-0.20097616996841805,-0.5622547612211696,-9.596612115991961,-0.0026631867692881303,0.000532637353857626,0.005592692215505073
-0.18183558235237823,-0.1339841133122787,-9.663604172648101,-0.006125329569362699,-0.000798956030786439,0.007723241630935577
-0.14116183366829363,-0.05502918939611447,-9.716240788592211,-0.003195824123145756,-0.0013315933846440651,0.005859010892433886
-0.09809551153220404,0.04545889558809456,-9.527227485883817,-0.006924285600149138,0.000266318676928813,0.005592692215505073
-0.4019523399368361,-0.13159153986027372,-9.72102593549622,-0.003728461477003382,-0.000266318676928813,0.003195824123145756
-0.2895013876926022,-0.03588860178007465,-9.74016652311226,-0.003195824123145756,0.000532637353857626,0.006391648246291512
-0.15073212747631354,-0.004785146904009953,-9.620537850512012,-0.005060054861647447,0.001065274707715252,0.005859010892433886
-0.1339841133122787,-0.09331036462819409,-9.72102593549622,-0.002396868092359317,0.000266318676928813,0.005859010892433886
0.5048329983730501,-0.411522633744856,-9.096564264522922,-0.002929505446216943,-0.001597912061572878,0.0071906042770779515
-0.19858359651641305,-0.22729447794047278,-9.591826969087952,-0.002130549415430504,0.001597912061572878,0.006391648246291512
-0.1531247009283185,-0.13876926021628866,-9.886113503684564,-0.006391648246291512,0.002396868092359317,0.006924285600149138
0.3517082974447316,0.1531247009283185,-9.319073595559384,-0.003728461477003382,-0.003462142800074569,0.00798956030786439
-0.1339841133122787,-0.03588860178007465,-9.776055124892334,-0.0053263735385762605,0.003994780153932195,0.006924285600149138
-0.16748014164034836,-0.13876926021628866,-9.654033878840082,-0.004527417507789821,0.003195824123145756,0.006924285600149138
-0.3349602832806967,-0.16748014164034836,-9.436309694707628,-0.002396868092359317,0.001065274707715252,0.006391648246291512
-0.1746578619963633,-0.04545889558809456,-9.65881902574409,-0.004527417507789821,0.002130549415430504,0.006924285600149138
-0.12441381950425878,0.03349602832806967,-9.716240788592211,-0.002130549415430504,0.001864230738501691,0.0071906042770779515
-0.16030242128433345,0.205761316872428,-9.838262034644464,-0.005060054861647447,0.000532637353857626,0.005859010892433886
-0.00717772035601493,0.6986314479854532,-9.986601588668773,-0.0053263735385762605,-0.003994780153932195,0.008522197661722016
-0.10048808498420903,-0.3014642549526271,-9.699492774428176,-0.003728461477003382,-0.0013315933846440651,0.004527417507789821
-0.05263661594410949,0.06459948320413438,-9.709063068236196,-0.006391648246291512,0.000532637353857626,0.006924285600149138
-0.3995597664848311,0.0,-10.044023351516891,-0.002130549415430504,0.0013315933846440651,0.005859010892433886
-0.20336874342042302,-0.08134749736816921,-9.68752990716815,-0.005859010892433886,0.002130549415430504,0.006125329569362699
-0.19140587616039814,-0.15073212747631354,-9.72102593549622,-0.001597912061572878,-0.000266318676928813,0.0053263735385762605
-0.009570293808019907,-0.09570293808019907,-9.630108144320031,-0.004527417507789821,0.000798956030786439,0.00798956030786439
-0.2560053593645325,0.009570293808019907,-9.548760646951862,-0.001065274707715252,0.000266318676928813,0.007456922954006764
-0.14116183366829363,0.019140587616039813,-9.58225667527993,-0.006125329569362699,-0.000532637353857626,0.006924285600149138
-0.14833955402430857,-0.05742176284811944,-9.670781893004115,-0.0013315933846440651,0.000266318676928813,0.005060054861647447
-0.3852043257728012,-0.2153316106804479,-8.603694133409896,-0.003462142800074569,-0.000532637353857626,0.00798956030786439
-0.2464350655565126,0.06699205665613935,-9.776055124892334,-0.0026631867692881303,0.001065274707715252,0.00798956030786439
-0.15790984783232845,-0.11484352569623887,-9.496124031007753,-0.002130549415430504,-0.002929505446216943,0.006657966923220325
-0.05502918939611447,-0.05024404249210451,-9.529620059335823,-0.003462142800074569,-0.001597912061572878,0.006125329569362699
-0.10527323188821898,-0.102880658436214,-9.886113503684564,-0.0013315933846440651,-0.000532637353857626,0.006125329569362699
-0.11962867260024883,-0.12680639295626375,-9.704277921332185,-0.004261098830861008,0.000266318676928813,0.006125329569362699
-0.5431141736051297,-0.37802660541678634,-9.546368073499856,-0.000532637353857626,0.000798956030786439,0.0053263735385762605
-0.22729447794047278,-0.023925734520049768,-9.620537850512012,-0.004261098830861008,0.000532637353857626,0.004527417507789821
0.03828117523207963,-0.00717772035601493,-9.551153220403867,-0.006391648246291512,-0.002130549415430504,0.007723241630935577
0.0717772035601493,0.04306632213608958,-9.630108144320031,-0.001065274707715252,0.002396868092359317,0.0026631867692881303
-0.5478993205091397,0.20815389032443296,-9.17791176189109,-0.003994780153932195,-0.000266318676928813,0.003462142800074569
-0.06459948320413438,0.09091779117618912,-9.512872045171788,-0.0013315933846440651,-0.000266318676928813,0.0071906042770779515
-0.1937984496124031,-0.09570293808019907,-9.496124031007753,-0.002396868092359317,-0.0026631867692881303,0.006391648246291512
-0.29189396114460714,-0.31103454876064696,-9.689922480620156,-0.002130549415430504,0.001597912061572878,0.006657966923220325
-0.2560053593645325,0.0717772035601493,-9.76409225763231,-0.002130549415430504,-0.000798956030786439,0.006391648246291512
0.3828117523207963,0.7464829170255527,-10.709158771174275,-0.0,0.003994780153932195,0.006125329569362699
-0.2536127859125275,-0.13159153986027372,-9.615752703608,-0.006125329569362699,0.000266318676928813,0.0053263735385762605
-0.14833955402430857,0.12202124605225381,-9.469805723035698,-0.004261098830861008,-0.000532637353857626,0.009587472369437269
-0.411522633744856,0.06938463010814433,-9.716240788592211,-0.002929505446216943,-0.001864230738501691,0.005859010892433886
-0.10766580534022395,-0.00717772035601493,-9.613360130155996,-0.0026631867692881303,-0.002130549415430504,0.006657966923220325
-0.1339841133122787,0.03828117523207963,-10.17322231792516,-0.002929505446216943,-0.000798956030786439,0.006125329569362699
0.05024404249210451,-0.02153316106804479,-9.922002105464639,-0.000798956030786439,-0.0026631867692881303,0.006125329569362699
-0.1435544071202986,-0.17226528854435832,-9.527227485883817,-0.000266318676928813,-0.000532637353857626,0.0053263735385762605
-0.040673748684084604,-0.10048808498420903,-9.570293808019906,-0.003728461477003382,-0.0013315933846440651,0.004793736184718634
-0.1746578619963633,-0.02153316106804479,-9.66838931955211,-0.004527417507789821,0.000798956030786439,0.0071906042770779515
-0.16748014164034836,-0.1531247009283185,-9.699492774428176,-0.0013315933846440651,-0.001065274707715252,0.0053263735385762605
-0.11962867260024883,-0.22250933103646284,-9.795195712508374,-0.0026631867692881303,0.000266318676928813,0.006125329569362699
-0.27993109388458226,-0.0023925734520049767,-9.821514020480429,-0.001597912061572878,-0.003195824123145756,0.006657966923220325
-0.1124509522442339,0.0717772035601493,-9.503301751363768,-0.002929505446216943,-0.001597912061572878,0.006391648246291512
-0.303856828404632,-0.11962867260024883,-9.866972916068525,-0.000532637353857626,-0.0,0.006125329569362699
-0.5407216001531248,0.27993109388458226,-9.670781893004115,-0.001864230738501691,-0.003994780153932195,0.006391648246291512
-0.24404249210450762,-0.07416977701215428,-9.713848215140205,-0.001065274707715252,0.001597912061572878,0.0071906042770779515
-0.1842281558043832,-0.1435544071202986,-9.718633362044216,-0.001864230738501691,0.000798956030786439,0.005592692215505073
-0.09570293808019907,-0.15073212747631354,-9.795195712508374,-0.002929505446216943,0.001597912061572878,0.005859010892433886
-0.13637668676428366,-0.09091779117618912,-9.7593071107283,-0.003728461477003382,0.000266318676928813,0.006391648246291512
-0.1842281558043832,-0.06938463010814433,-9.486553737199733,-0.000532637353857626,0.000798956030786439,0.006657966923220325
-0.00717772035601493,-0.22729447794047278,-9.665996746100106,-0.0,0.000532637353857626,0.006924285600149138
-0.06938463010814433,-0.07895492391616422,-9.467413149583694,-0.004261098830861008,0.000266318676928813,0.006924285600149138
-0.026318307972054745,-0.12441381950425878,-9.596612115991961,-0.001597912061572878,-0.000798956030786439,0.007456922954006764
-0.12919896640826875,0.10527323188821898,-10.309599004689444,-0.001597912061572878,-0.002396868092359317,0.006924285600149138
-0.10766580534022395,-0.12680639295626375,-9.809551153220404,0.001597912061572878,0.002396868092359317,0.004793736184718634
-0.09331036462819409,-0.15790984783232845,-9.7114556416882,-0.000532637353857626,-0.003195824123145756,0.006657966923220325
0.04306632213608958,-0.05502918939611447,-9.66838931955211,-0.006125329569362699,-0.000532637353857626,0.0071906042770779515
-0.0,-0.13159153986027372,-9.70188534788018,-0.0,0.000266318676928813,0.006125329569362699
-0.3588860178007465,0.0,-8.809455450282325,-0.003195824123145756,0.003728461477003382,0.005859010892433886
-0.0,-0.023925734520049768,-9.606182409799981,-0.003195824123145756,-0.001864230738501691,0.006657966923220325
-0.22729447794047278,0.026318307972054745,-9.72581108240023,-0.001864230738501691,0.002929505446216943,0.006391648246291512
-0.19619102306440808,-0.2775385204325773,-9.642071011580056,-0.000798956030786439,0.003195824123145756,0.006657966923220325
-0.13637668676428366,-0.32538998947267683,-9.828691740836444,-0.0013315933846440651,-0.002929505446216943,0.006391648246291512
0.01435544071202986,-0.1124509522442339,-9.661211599196095,-0.002929505446216943,0.000266318676928813,0.005859010892433886
-0.12680639295626375,-0.16269499473633842,-9.642071011580056,-0.002396868092359317,0.002130549415430504,0.006391648246291512
-0.16269499473633842,-0.10048808498420903,-9.610967556703992,-0.0013315933846440651,0.000266318676928813,0.005060054861647447
-0.06699205665613935,-0.16748014164034836,-9.651641305388075,-0.001597912061572878,0.002130549415430504,0.007456922954006764
-0.14116183366829363,-0.05742176284811944,-9.728203655852235,-0.001597912061572878,0.000532637353857626,0.0071906042770779515
-0.3804191788687913,-0.0023925734520049767,-9.309503301751365,-0.000798956030786439,-0.002130549415430504,0.008255878984793203
-0.24164991865250265,0.0023925734520049767,-9.799980859412385,-0.002396868092359317,0.003994780153932195,0.004527417507789821
-0.3014642549526271,0.02871088142405972,-9.802373432864389,-0.0026631867692881303,0.001864230738501691,0.006125329569362699
-0.004785146904009953,-0.14594698057230357,-9.752129390372286,-0.000798956030786439,0.000532637353857626,0.0071906042770779515
-0.06220690975212939,-0.016748014164034836,-9.866972916068525,-0.004261098830861008,-0.000798956030786439,0.005592692215505073
-0.1124509522442339,0.004785146904009953,-9.560723514211887,-0.001065274707715252,-0.001597912061572878,0.004527417507789821
0.3301751363766868,-0.22011675758445787,-9.417169107091588,-0.0026631867692881303,-0.0013315933846440651,0.004261098830861008
-0.2464350655565126,-0.11723609914824386,-9.883720930232558,-0.003728461477003382,0.002929505446216943,0.006657966923220325
-0.1746578619963633,-0.17226528854435832,-9.72102593549622,-0.001864230738501691,0.000266318676928813,0.006391648246291512
-0.07656235046415925,-0.11723609914824386,-9.587041822183942,-0.000798956030786439,-0.000266318676928813,0.006125329569362699
0.3493157239927266,0.4163077806488659,-9.469805723035698,-0.001065274707715252,0.000266318676928813,0.005592692215505073
-0.0717772035601493,-0.11962867260024883,-9.84065460809647,-0.002929505446216943,-0.002130549415430504,0.004261098830861008
0.0023925734520049767,-0.102880658436214,-9.685137333716145,0.000266318676928813,-0.001065274707715252,0.006391648246291512
-0.01435544071202986,-0.22729447794047278,-9.8071585797684,-0.003728461477003382,0.001065274707715252,0.008255878984793203
-0.205761316872428,-0.3852043257728012,-9.673174466456121,-0.001597912061572878,0.000532637353857626,0.006924285600149138
-0.15073212747631354,-0.08134749736816921,-9.888506077136569,-0.001864230738501691,0.000532637353857626,0.006391648246291512
-0.3158196956646569,-0.5622547612211696,-10.223466360417266,0.000798956030786439,-0.000798956030786439,0.006657966923220325
0.7895492391616423,-0.09331036462819409,-10.709158771174275,0.001065274707715252,-0.0013315933846440651,0.0053263735385762605
0.07416977701215428,0.026318307972054745,-9.529620059335823,-0.002929505446216943,-0.002929505446216943,0.0071906042770779515
-0.25122021246052256,-0.29667910804861714,-9.718633362044216,-0.0013315933846440651,-0.000266318676928813,0.0053263735385762605
-0.031103454876064696,-0.11723609914824386,-9.596612115991961,-0.003195824123145756,-0.0026631867692881303,0.005859010892433886
-0.2368647717484927,-0.19858359651641305,-9.874150636424538,-0.002929505446216943,0.0026631867692881303,0.006125329569362699
-0.08852521772418413,0.20815389032443296,-9.558330940759882,-0.000532637353857626,0.0013315933846440651,0.005592692215505073
-0.1124509522442339,-0.2249019044884678,-9.74016652311226,-0.000532637353857626,-0.002396868092359317,0.009054835015579642
-0.2703608000765624,-0.031103454876064696,-9.558330940759882,-0.003195824123145756,-0.000266318676928813,0.005859010892433886
-0.18183558235237823,-0.12680639295626375,-9.68752990716815,-0.0026631867692881303,-0.000266318676928813,0.004793736184718634
0.39477461958082116,0.4306632213608958,-9.271222126519284,-0.002130549415430504,-0.005060054861647447,0.00798956030786439
-0.21054646377643796,-0.2153316106804479,-9.86936548952053,-0.002396868092359317,0.003195824123145756,0.00798956030786439
-0.1531247009283185,-0.11005837879222893,-9.618145277060007,-0.003195824123145756,0.001597912061572878,0.005859010892433886
-0.03349602832806967,-0.12919896640826875,-9.665996746100106,-0.002929505446216943,-0.003462142800074569,0.0053263735385762605
-0.16030242128433345,-0.09570293808019907,-9.874150636424538,-0.002929505446216943,0.0053263735385762605,0.006391648246291512
-0.10766580534022395,-0.09331036462819409,-10.005742176284812,-0.003462142800074569,-0.001065274707715252,0.003994780153932195
-0.26557565317255244,-0.28232366733658726,-9.69710020097617,0.000798956030786439,-0.000266318676928813,0.00798956030786439
0.2703608000765624,-0.04545889558809456,-10.194755478993205,-0.000266318676928813,0.003462142800074569,0.005859010892433886
-0.2583979328165375,-0.3660637381567614,-9.599004689443966,-0.001597912061572878,0.001065274707715252,0.005592692215505073
-0.02871088142405972,-0.20336874342042302,-9.785625418700354,0.0013315933846440651,-0.000266318676928813,0.007723241630935577
-0.14116183366829363,-0.2775385204325773,-9.64446358503206,-0.001065274707715252,-0.000532637353857626,0.0053263735385762605
-0.11484352569623887,-0.16030242128433345,-9.579864101827926,-0.001065274707715252,-0.000798956030786439,0.006657966923220325
0.009570293808019907,0.0023925734520049767,-9.79280313905637,-0.001597912061572878,0.001065274707715252,0.005859010892433886
-0.4952627045650302,-0.4498038089769356,-10.77854340128242,0.002396868092359317,0.004527417507789821,0.0053263735385762605
-0.0,0.0,-9.699492774428176,-0.003195824123145756,-0.0026631867692881303,0.005592692215505073
-0.4498038089769356,0.019140587616039813,-9.012824193702746,0.001065274707715252,-0.001597912061572878,0.005859010892433886
-0.4019523399368361,0.3349602832806967,-9.366925064599483,-0.004793736184718634,-0.001597912061572878,0.005060054861647447
0.516795865633075,-0.07656235046415925,-9.606182409799981,-0.0053263735385762605,-0.0026631867692881303,0.0071906042770779515
-0.2847162407885922,-0.15790984783232845,-9.534405206239832,0.002396868092359317,0.005859010892433886,0.005859010892433886
-0.2153316106804479,-0.06699205665613935,-9.680352186812136,-0.001597912061572878,-0.001864230738501691,0.005060054861647447
0.1124509522442339,-0.11005837879222893,-9.68752990716815,-0.001864230738501691,-0.007456922954006764,0.0071906042770779515
-0.059814336300124414,-0.306249401856637,-9.776055124892334,-0.003462142800074569,0.001065274707715252,0.005592692215505073
-0.13637668676428366,-0.18901330270839317,-9.565508661115897,-0.001597912061572878,0.000266318676928813,0.007456922954006764
-0.22729447794047278,0.031103454876064696,-9.7114556416882,-0.000798956030786439,-0.000532637353857626,0.005592692215505073
0.031103454876064696,-0.06938463010814433,-9.520049765527801,-0.002396868092359317,-0.002130549415430504,0.0071906042770779515
-0.1937984496124031,-0.13637668676428366,-9.960283280696718,-0.000532637353857626,0.001597912061572878,0.006125329569362699
-0.01435544071202986,0.0,-9.838262034644464,-0.003994780153932195,-0.001864230738501691,0.006391648246291512
-0.026318307972054745,-0.102880658436214,-9.670781893004115,-0.000798956030786439,0.000798956030786439,0.00798956030786439
-0.13876926021628866,0.06699205665613935,-9.70188534788018,-0.001065274707715252,-0.0026631867692881303,0.006924285600149138
-0.26079050626854244,-0.102880658436214,-9.716240788592211,0.000266318676928813,0.002396868092359317,0.006391648246291512
-0.23925734520049766,-0.4737295434969854,-9.766484831084314,-0.0013315933846440651,-0.003994780153932195,0.006125329569362699
-0.10048808498420903,-0.08374007082017418,-9.630108144320031,0.000532637353857626,0.001065274707715252,0.005859010892433886
-0.12919896640826875,-0.1650875681883434,-9.728203655852235,-0.002396868092359317,0.001065274707715252,0.005859010892433886
-0.01435544071202986,-0.16748014164034836,-9.670781893004115,-0.003195824123145756,-0.001065274707715252,0.004793736184718634
-0.03349602832806967,-0.2368647717484927,-9.81672887357642,-0.001065274707715252,-0.000266318676928813,0.005592692215505073
-0.26318307972054744,-0.02153316106804479,-9.66838931955211,-0.000798956030786439,0.000266318676928813,0.0053263735385762605
-0.16748014164034836,-0.1531247009283185,-9.780840271796345,-0.001864230738501691,-0.000532637353857626,0.005060054861647447
0.016748014164034836,-0.13876926021628866,-9.926787252368648,-0.001065274707715252,0.000798956030786439,0.005859010892433886
-0.04545889558809456,-0.09809551153220404,-9.704277921332185,-0.002130549415430504,-0.000798956030786439,0.006924285600149138
-0.08374007082017418,-0.09091779117618912,-9.508086898267777,-0.0,0.001065274707715252,0.005060054861647447
-0.4737295434969854,-0.22250933103646284,-9.536797779691836,-0.003994780153932195,0.004261098830861008,0.005592692215505073
-0.13637668676428366,-0.12919896640826875,-9.532012632787827,0.000266318676928813,0.000266318676928813,0.0071906042770779515
-0.03588860178007465,-0.23447219829648772,-9.529620059335823,-0.003195824123145756,-0.001864230738501691,0.0053263735385762605
-0.15790984783232845,-0.07895492391616422,-9.649248731936071,-0.003195824123145756,0.001065274707715252,0.0071906042770779515
0.1650875681883434,0.13159153986027372,-9.603789836347977,-0.000798956030786439,-0.001597912061572878,0.005060054861647447
-0.303856828404632,0.0023925734520049767,-9.421954253995597,-0.001597912061572878,-0.0,0.005859010892433886
-0.19619102306440808,-0.16987271509235335,-9.890898650588573,-0.000798956030786439,-0.000266318676928813,0.006657966923220325
-0.1124509522442339,-0.22011675758445787,-9.74495167001627,-0.002396868092359317,0.003195824123145756,0.006391648246291512
-0.011962867260024884,-0.08852521772418413,-9.790410565604365,-0.000266318676928813,0.000532637353857626,0.004261098830861008
-0.03588860178007465,-0.016748014164034836,-9.608574983251986,-0.002929505446216943,-0.003195824123145756,0.006125329569362699
-0.3852043257728012,-0.3373528567327017,-9.579864101827926,-0.002396868092359317,-0.0026631867692881303,0.005859010892433886
-0.17705043544836827,-0.03828117523207963,-9.66838931955211,-0.001065274707715252,0.000266318676928813,0.005859010892433886
-0.03828117523207963,-0.1531247009283185,-9.685137333716145,-0.002130549415430504,-0.0,0.0053263735385762605
-0.02153316106804479,0.019140587616039813,-9.69231505407216,-0.0013315933846440651,-0.0,0.007456922954006764
-0.3158196956646569,-0.1124509522442339,-9.670781893004115,-0.001597912061572878,-0.001597912061572878,0.007456922954006764
-0.2560053593645325,-0.18901330270839317,-9.661211599196095,-0.000798956030786439,0.004527417507789821,0.008255878984793203
-0.019140587616039813,-0.102880658436214,-9.912431811656619,-0.005060054861647447,-0.003462142800074569,0.006657966923220325
-0.06459948320413438,-0.12202124605225381,-9.72102593549622,-0.0026631867692881303,-0.0013315933846440651,0.005859010892433886
-0.0717772035601493,0.06220690975212939,-9.7114556416882,-0.0053263735385762605,-0.000798956030786439,0.006924285600149138
-0.04306632213608958,-0.14594698057230357,-9.845439755000479,-0.000798956030786439,-0.0013315933846440651,0.005859010892433886
-0.3373528567327017,-0.2871088142405972,-9.785625418700354,-0.002396868092359317,0.000532637353857626,0.005859010892433886
-0.14833955402430857,-0.18183558235237823,-9.548760646951862,-0.0,-0.0,0.006924285600149138
0.040673748684084604,-0.08374007082017418,-9.881328356780553,-0.002130549415430504,-0.0,0.006657966923220325
-0.16748014164034836,-0.11723609914824386,-9.79280313905637,-0.001597912061572878,0.000532637353857626,0.006657966923220325
-0.2153316106804479,-0.05502918939611447,-9.78801799215236,-0.0013315933846440651,0.001065274707715252,0.007456922954006764
-0.15790984783232845,-0.22011675758445787,-9.79758828596038,-0.003728461477003382,-0.001065274707715252,0.006657966923220325
-0.3875968992248062,-0.32299741602067183,-9.24490381854723,-0.001597912061572878,0.005060054861647447,0.008255878984793203
-0.06220690975212939,-0.14833955402430857,-9.603789836347977,0.000266318676928813,-0.0013315933846440651,0.007723241630935577
-0.07656235046415925,-0.1746578619963633,-9.895683797492584,-0.002396868092359317,-0.001864230738501691,0.006391648246291512
-0.13637668676428366,-0.06220690975212939,-9.74973681692028,-0.001065274707715252,0.000532637353857626,0.008255878984793203
-0.715379462149488,-0.612498803713274,-9.051105368934827,-0.003195824123145756,-0.009853791046366082,0.006391648246291512
0.06938463010814433,0.03349602832806967,-9.606182409799981,-0.0013315933846440651,0.000532637353857626,0.005859010892433886
-0.18901330270839317,-0.21772418413245287,-9.680352186812136,-0.001864230738501691,0.004261098830861008,0.005592692215505073
-0.08852521772418413,-0.1124509522442339,-9.69231505407216,-0.0013315933846440651,0.000266318676928813,0.005592692215505073
-0.019140587616039813,-0.06699205665613935,-9.70188534788018,-0.0053263735385762605,0.000798956030786439,0.005060054861647447
-0.3182122691166619,-0.2249019044884678,-9.003253899894727,-0.000532637353857626,0.004527417507789821,0.00798956030786439
-0.205761316872428,-0.14116183366829363,-9.622930423964016,-0.002396868092359317,-0.002929505446216943,0.006657966923220325
-0.15551727438032348,-0.1435544071202986,-9.72102593549622,-0.004527417507789821,-0.001065274707715252,0.006391648246291512
-0.07895492391616422,-0.15073212747631354,-9.723418508948225,-0.0013315933846440651,0.0013315933846440651,0.006125329569362699
-0.03349602832806967,-0.2560053593645325,-9.77366255144033,-0.001864230738501691,-0.0026631867692881303,0.005060054861647447
-0.6818834338214184,-0.37563403196478135,-9.802373432864389,-0.0013315933846440651,0.000266318676928813,0.005592692215505073
-0.1937984496124031,-0.102880658436214,-9.747344243468275,-0.006657966923220325,0.000798956030786439,0.005592692215505073
-0.18183558235237823,-0.11723609914824386,-9.613360130155996,-0.004261098830861008,0.003728461477003382,0.008522197661722016
-0.24882763900851756,-0.031103454876064696,-9.606182409799981,-0.004527417507789821,-0.001065274707715252,0.006391648246291512
-0.22250933103646284,-0.1124509522442339,-9.651641305388075,-0.003462142800074569,0.001597912061572878,0.005592692215505073
-0.15073212747631354,-0.1650875681883434,-9.79758828596038,-0.001597912061572878,-0.002929505446216943,0.006125329569362699
-0.5526844674131496,-0.5048329983730501,-9.558330940759882,-0.003728461477003382,0.0013315933846440651,0.005060054861647447
-0.06938463010814433,-0.20097616996841805,-9.589434395635946,-0.000532637353857626,-0.004527417507789821,0.006657966923220325
-0.22968705139247775,-0.24404249210450762,-9.75452196382429,-0.003195824123145756,-0.000798956030786439,0.004527417507789821
0.016748014164034836,-0.24882763900851756,-9.421954253995597,-0.0013315933846440651,-0.0013315933846440651,0.006391648246291512
0.1339841133122787,0.4474112355249306,-10.039238204612882,-0.001597912061572878,-0.008255878984793203,0.009853791046366082
-0.4210929275528759,-0.22729447794047278,-9.632500717772036,-0.005060054861647447,-0.002130549415430504,0.006924285600149138
-0.18662072925638817,-0.15790984783232845,-9.63489329122404,0.002396868092359317,0.002130549415430504,0.005592692215505073
-0.1531247009283185,-0.08613264427217916,-9.613360130155996,-0.005859010892433886,-0.000266318676928813,0.005859010892433886
-0.04545889558809456,-0.07656235046415925,-9.689922480620156,0.000798956030786439,-0.0013315933846440651,0.008522197661722016
-0.3517082974447316,0.5383290267011197,-9.981816441764762,-0.000798956030786439,0.003994780153932195,0.006125329569362699
-0.24404249210450762,-0.2727533735285673,-9.845439755000479,-0.002396868092359317,-0.0013315933846440651,0.006125329569362699
0.11005837879222893,-0.22250933103646284,-9.776055124892334,-0.002396868092359317,-0.0013315933846440651,0.005859010892433886
-0.09331036462819409,-0.2895013876926022,-9.63489329122404,-0.001864230738501691,0.001065274707715252,0.0071906042770779515
-0.10527323188821898,-0.14594698057230357,-9.857402622260503,-0.003195824123145756,-0.002130549415430504,0.005859010892433886
-0.306249401856637,-0.14594698057230357,-9.709063068236196,-0.001597912061572878,-0.000532637353857626,0.006391648246291512
-0.3349602832806967,-0.059814336300124414,-9.639678438128051,-0.002396868092359317,0.002929505446216943,0.003462142800074569
-0.20336874342042302,-0.05742176284811944,-9.594219542539957,-0.002929505446216943,0.0013315933846440651,0.003994780153932195
-0.17944300890037326,-0.0717772035601493,-9.79758828596038,-0.002130549415430504,-0.002130549415430504,0.003994780153932195
-0.10766580534022395,-0.18901330270839317,-9.63489329122404,-0.003728461477003382,-0.0,0.0071906042770779515
-0.10048808498420903,-0.13637668676428366,-9.761699684180305,-0.001065274707715252,-0.002396868092359317,0.005859010892433886
-0.15551727438032348,-0.11723609914824386,-9.742559096564266,-0.004793736184718634,0.003462142800074569,0.006125329569362699
-0.019140587616039813,0.07656235046415925,-9.804766006316395,-0.002130549415430504,-0.001597912061572878,0.006391648246291512
-0.19858359651641305,-0.1531247009283185,-9.654033878840082,-0.003728461477003382,-0.000266318676928813,0.0053263735385762605
-0.19619102306440808,-0.06699205665613935,-9.646856158484066,-0.001065274707715252,0.000798956030786439,0.007456922954006764
-0.11005837879222893,-0.17944300890037326,-9.76409225763231,-0.000266318676928813,-0.0013315933846440651,0.0053263735385762605
-0.06459948320413438,-0.09091779117618912,-9.776055124892334,-0.0026631867692881303,-0.0026631867692881303,0.003195824123145756
0.011962867260024884,-0.1842281558043832,-9.651641305388075,-0.002929505446216943,-0.002130549415430504,0.0071906042770779515
-0.1746578619963633,-0.23447219829648772,-9.433917121255623,-0.006125329569362699,0.005859010892433886,0.005592692215505073
-0.1339841133122787,-0.19858359651641305,-9.732988802756244,-0.002130549415430504,-0.000798956030786439,0.007723241630935577
-0.08613264427217916,-0.00717772035601493,-9.77844769834434,-0.0053263735385762605,-0.0026631867692881303,0.006391648246291512
-0.09331036462819409,-0.19858359651641305,-9.86936548952053,-0.003195824123145756,-0.000532637353857626,0.0053263735385762605
0.02153316106804479,-0.33256770982869177,-9.74973681692028,-0.000798956030786439,0.001597912061572878,0.00798956030786439
-0.11005837879222893,0.02871088142405972,-9.77366255144033,-0.005060054861647447,-0.0,0.008255878984793203
-0.02871088142405972,-0.2536127859125275,-9.610967556703992,-0.000532637353857626,-0.003728461477003382,0.0053263735385762605
-0.5287587328930998,-0.29428653459661214,-8.440999138673558,-0.006125329569362699,-0.007723241630935577,0.005592692215505073
0.03349602832806967,0.009570293808019907,-9.539190353143843,-0.0,-0.001065274707715252,0.006125329569362699
-0.09091779117618912,-0.17226528854435832,-9.68752990716815,-0.003462142800074569,-0.000798956030786439,0.005859010892433886
-0.2153316106804479,-0.15790984783232845,-9.613360130155996,-0.001864230738501691,0.000532637353857626,0.005592692215505073
-0.08134749736816921,-1.1986792994544933,-9.359747344243468,-0.004793736184718634,0.004793736184718634,0.00798956030786439
-0.28232366733658726,-0.17226528854435832,-9.615752703608,-0.001597912061572878,0.001597912061572878,0.006924285600149138
-0.1124509522442339,-0.21772418413245287,-9.747344243468275,-0.0013315933846440651,-0.002130549415430504,0.004793736184718634
-0.17226528854435832,-0.07895492391616422,-9.579864101827926,-0.003462142800074569,0.000266318676928813,0.005060054861647447
-0.205761316872428,-0.1937984496124031,-9.656426452292086,-0.003462142800074569,-0.000532637353857626,0.006391648246291512
-0.15551727438032348,0.05502918939611447,-9.673174466456121,-0.004527417507789821,0.000266318676928813,0.006391648246291512
-0.40673748684084604,0.47133697004498043,-10.017705043544838,-0.002396868092359317,-0.001065274707715252,0.005060054861647447
-0.21772418413245287,-0.09570293808019907,-9.493731457555748,-0.003462142800074569,0.001597912061572878,0.006657966923220325
-0.13159153986027372,-0.1650875681883434,-9.723418508948225,-0.002929505446216943,-0.0026631867692881303,0.006125329569362699
-0.1842281558043832,-0.22011675758445787,-9.70188534788018,0.000532637353857626,-0.001065274707715252,0.007723241630935577
-0.019140587616039813,0.019140587616039813,-9.656426452292086,-0.0053263735385762605,0.003728461477003382,0.005592692215505073
-0.1937984496124031,-0.21293903722844293,-9.445879988515648,-0.003462142800074569,-0.000532637353857626,0.006125329569362699
-0.13876926021628866,-0.102880658436214,-9.65881902574409,-0.005592692215505073,0.000532637353857626,0.004793736184718634
-0.26318307972054744,-0.11005837879222893,-9.661211599196095,-0.002929505446216943,0.002396868092359317,0.005859010892433886
-0.21293903722844293,-0.05502918939611447,-9.572686381471911,-0.005060054861647447,-0.000798956030786439,0.005592692215505073
-0.102880658436214,-0.3493157239927266,-9.709063068236196,-0.002396868092359317,-0.000798956030786439,0.006125329569362699
-0.031103454876064696,0.43784094171691074,-10.737869652598336,-0.005060054861647447,-0.002396868092359317,0.007723241630935577
-0.16030242128433345,-0.16030242128433345,-9.993779309024788,-0.002929505446216943,-0.004527417507789821,0.003728461477003382
-0.1531247009283185,-0.11484352569623887,-9.761699684180305,-0.003195824123145756,0.001864230738501691,0.00878851633865083
-0.31103454876064696,-0.10048808498420903,-9.742559096564266,-0.005859010892433886,0.000798956030786439,0.007456922954006764
-0.46655182314097043,-0.031103454876064696,-8.634797588285961,-0.002929505446216943,0.001065274707715252,0.005859010892433886
0.031103454876064696,-0.08374007082017418,-9.560723514211887,-0.0071906042770779515,-0.001065274707715252,0.006657966923220325
-0.1435544071202986,-0.06938463010814433,-9.670781893004115,-0.0013315933846440651,0.001065274707715252,0.006657966923220325
-0.0717772035601493,-0.17226528854435832,-9.74973681692028,-0.004527417507789821,-0.001065274707715252,0.007723241630935577
-0.047851469040099535,-0.21054646377643796,-9.991386735572783,-0.002929505446216943,-0.002130549415430504,0.004261098830861008
-0.12441381950425878,-0.06938463010814433,-9.771269977988325,-0.005859010892433886,0.000798956030786439,0.006125329569362699
0.2990716815006221,-0.0023925734520049767,-9.630108144320031,-0.001864230738501691,-0.003195824123145756,0.006125329569362699
-0.10527323188821898,-0.22729447794047278,-9.651641305388075,-0.002130549415430504,-0.0026631867692881303,0.006125329569362699
0.3804191788687913,0.9450665135419658,-9.948320413436694,-0.003195824123145756,0.009054835015579642,0.006657966923220325
-0.3469231505407216,0.11005837879222893,-9.70188534788018,-0.0053263735385762605,0.000798956030786439,0.006391648246291512
0.05742176284811944,-0.02153316106804479,-9.654033878840082,-0.005060054861647447,0.001597912061572878,0.006125329569362699
-0.21054646377643796,-0.17944300890037326,-9.64446358503206,-0.005060054861647447,0.002929505446216943,0.006391648246291512
-0.17705043544836827,-0.1746578619963633,-9.68752990716815,-0.005592692215505073,0.004261098830861008,0.005060054861647447
-0.19140587616039814,-0.0717772035601493,-9.596612115991961,-0.002929505446216943,-0.001597912061572878,0.004261098830861008
-0.24404249210450762,-0.22968705139247775,-9.613360130155996,-0.002396868092359317,0.002929505446216943,0.00798956030786439
-0.12202124605225381,-0.14833955402430857,-9.70667049478419,-0.0053263735385762605,0.002396868092359317,0.006391648246291512
-0.02871088142405972,0.12441381950425878,-9.022394487510766,-0.004527417507789821,-0.003994780153932195,0.005592692215505073
-0.09570293808019907,-0.15073212747631354,-9.66838931955211,-0.007723241630935577,-0.002130549415430504,0.0053263735385762605
-0.19140587616039814,-0.17944300890037326,-9.618145277060007,-0.002929505446216943,0.000798956030786439,0.006657966923220325
-0.12202124605225381,0.03349602832806967,-9.685137333716145,-0.003728461477003382,0.000798956030786439,0.007723241630935577
-0.004785146904009953,-0.12919896640826875,-9.72102593549622,-0.006391648246291512,-0.0026631867692881303,0.004793736184718634
-0.26079050626854244,-0.17944300890037326,-9.689922480620156,-0.004527417507789821,-0.0,0.005859010892433886
-0.06699205665613935,-0.06699205665613935,-9.828691740836444,-0.004527417507789821,0.000266318676928813,0.0071906042770779515
-0.13637668676428366,-0.28232366733658726,-9.591826969087952,-0.002130549415430504,-0.004527417507789821,0.006125329569362699
0.09809551153220404,-0.1124509522442339,-9.855010048808499,-0.004261098830861008,-0.002929505446216943,0.005859010892433886
-0.016748014164034836,-0.02153316106804479,-9.685137333716145,-0.0053263735385762605,-0.000532637353857626,0.0071906042770779515
0.102880658436214,0.12919896640826875,-9.622930423964016,-0.0053263735385762605,-0.002929505446216943,0.0053263735385762605
-0.09091779117618912,-0.05263661594410949,-9.776055124892334,-0.003728461477003382,-0.001597912061572878,0.006924285600149138
-0.17226528854435832,-0.11723609914824386,-9.67795961336013,-0.0026631867692881303,0.0013315933846440651,0.008522197661722016
-0.03349602832806967,-0.09570293808019907,-9.723418508948225,-0.0053263735385762605,0.0026631867692881303,0.007456922954006764
-0.04545889558809456,-0.07656235046415925,-9.948320413436694,-0.0026631867692881303,-0.0,0.004527417507789821
-0.19140587616039814,-0.22968705139247775,-9.699492774428176,-0.005592692215505073,-0.002396868092359317,0.007723241630935577
-0.24404249210450762,-0.17226528854435832,-9.661211599196095,-0.004527417507789821,0.002130549415430504,0.006657966923220325
0.04306632213608958,0.047851469040099535,-9.732988802756244,-0.004793736184718634,0.000798956030786439,0.007456922954006764
-0.07416977701215428,-0.06938463010814433,-9.78323284524835,-0.006657966923220325,0.001597912061572878,0.005060054861647447
-0.06459948320413438,-0.023925734520049768,-9.680352186812136,-0.006924285600149138,-0.001597912061572878,0.006657966923220325
-0.6005359364532491,0.2560053593645325,-10.613455833094077,-0.0053263735385762605,-0.0,0.004527417507789821
-0.08613264427217916,-0.08613264427217916,-9.565508661115897,-0.003462142800074569,0.000798956030786439,0.006657966923220325
-0.16030242128433345,-0.14594698057230357,-9.70667049478419,-0.004527417507789821,0.000532637353857626,0.005859010892433886
-0.07895492391616422,-0.09570293808019907,-9.646856158484066,-0.003462142800074569,-0.003728461477003382,0.005592692215505073
-0.13876926021628866,-0.05742176284811944,-9.62532299741602,-0.004527417507789821,0.000532637353857626,0.005592692215505073
-0.10527323188821898,-0.00717772035601493,-9.64446358503206,-0.005859010892433886,0.003728461477003382,0.005859010892433886
0.019140587616039813,0.09091779117618912,-9.912431811656619,-0.003462142800074569,-0.0013315933846440651,0.007456922954006764
-0.16269499473633842,-0.07895492391616422,-9.70188534788018,-0.006657966923220325,-0.000266318676928813,0.005060054861647447
-0.10766580534022395,-0.07416977701215428,-9.771269977988325,-0.006125329569362699,-0.000266318676928813,0.006391648246291512
-0.16987271509235335,0.011962867260024884,-9.70188534788018,-0.003994780153932195,0.002929505446216943,0.0053263735385762605
-0.00717772035601493,-0.24164991865250265,-9.524834912431812,-0.0053263735385762605,-0.003462142800074569,0.006391648246291512
-0.22968705139247775,0.04306632213608958,-9.570293808019906,-0.005060054861647447,-0.002130549415430504,0.005592692215505073
0.019140587616039813,-0.17944300890037326,-9.776055124892334,-0.004261098830861008,-0.001597912061572878,0.006125329569362699
-0.10527323188821898,-0.10048808498420903,-9.656426452292086,-0.003728461477003382,-0.000266318676928813,0.006125329569362699
-0.16030242128433345,-0.07416977701215428,-9.66838931955211,-0.004527417507789821,0.001597912061572878,0.005859010892433886
-0.19619102306440808,-0.07656235046415925,-9.70667049478419,-0.006657966923220325,0.000266318676928813,0.007456922954006764
-0.05502918939611447,-0.09331036462819409,-9.847832328452483,-0.005060054861647447,0.001065274707715252,0.0053263735385762605
0.016748014164034836,-0.21772418413245287,-9.618145277060007,-0.004261098830861008,-0.003728461477003382,0.006924285600149138
-0.07656235046415925,0.02153316106804479,-9.72102593549622,-0.005060054861647447,0.002130549415430504,0.006125329569362699
-0.16030242128433345,-0.05742176284811944,-9.756914537276295,-0.001864230738501691,0.000532637353857626,0.004793736184718634
0.2536127859125275,0.019140587616039813,-10.012919896640827,-0.005859010892433886,-0.003728461477003382,0.006924285600149138
0.05502918939611447,0.05024404249210451,-9.539190353143843,-0.003195824123145756,0.000266318676928813,0.004527417507789821
-0.24164991865250265,-0.05742176284811944,-9.728203655852235,-0.006125329569362699,0.002929505446216943,0.006125329569362699
0.16987271509235335,-0.2464350655565126,-9.768877404536319,-0.001864230738501691,-0.000798956030786439,0.009321153692508456
-0.019140587616039813,-0.19619102306440808,-9.77366255144033,-0.002396868092359317,-0.001597912061572878,0.0053263735385762605
-0.04545889558809456,-0.15551727438032348,-9.843047181548474,-0.006125329569362699,-0.0013315933846440651,0.007456922954006764
-0.03588860178007465,-0.3804191788687913,-9.876543209876544,-0.003728461477003382,-0.000532637353857626,0.006391648246291512
0.06220690975212939,-0.07656235046415925,-9.845439755000479,-0.006391648246291512,0.0013315933846440651,0.006125329569362699
-0.12202124605225381,-0.03349602832806967,-9.654033878840082,-0.003994780153932195,-0.0,0.006391648246291512
-0.04306632213608958,-0.1124509522442339,-9.551153220403867,-0.006125329569362699,-0.0,0.0071906042770779515
-0.20336874342042302,-0.36127859125275147,-9.855010048808499,-0.003462142800074569,-0.000532637353857626,0.005859010892433886
-0.07656235046415925,-0.08613264427217916,-9.675567039908126,-0.002929505446216943,-0.003462142800074569,0.0053263735385762605
0.05502918939611447,-0.19858359651641305,-9.814336300124415,-0.005060054861647447,0.000532637353857626,0.0053263735385762605
-0.02153316106804479,-0.11005837879222893,-9.73538137620825,-0.002929505446216943,-0.001864230738501691,0.005060054861647447
-0.06699205665613935,-0.06938463010814433,-9.69231505407216,-0.0053263735385762605,0.000532637353857626,0.005859010892433886
-0.14594698057230357,-0.10527323188821898,-9.402813666379558,-0.005060054861647447,0.000266318676928813,0.006657966923220325
-0.15551727438032348,-0.13637668676428366,-9.79758828596038,-0.005859010892433886,0.004793736184718634,0.006657966923220325
-0.09570293808019907,0.004785146904009953,-9.742559096564266,-0.003994780153932195,-0.0,0.006125329569362699
-0.22011675758445787,-0.08374007082017418,-9.73538137620825,-0.005859010892433886,0.000266318676928813,0.0071906042770779515
-0.03349602832806967,-0.15551727438032348,-9.591826969087952,-0.004261098830861008,-0.000266318676928813,0.006657966923220325
0.4426260886209207,0.16269499473633842,-10.178007464829172,-0.001065274707715252,0.003728461477003382,0.005060054861647447
-0.1937984496124031,-0.11962867260024883,-9.704277921332185,-0.0053263735385762605,-0.002929505446216943,0.006125329569362699
-0.11962867260024883,0.00717772035601493,-9.742559096564266,-0.004527417507789821,-0.001597912061572878,0.008255878984793203
-0.12441381950425878,-0.12441381950425878,-9.8071585797684,-0.004261098830861008,0.002396868092359317,0.0071906042770779515
-0.21054646377643796,-0.02871088142405972,-9.855010048808499,-0.006657966923220325,-0.0026631867692881303,0.006391648246291512
-0.4306632213608958,0.00717772035601493,-10.108622834721027,-0.003994780153932195,0.002929505446216943,0.0026631867692881303
-0.14594698057230357,-0.17944300890037326,-9.862187769164514,-0.004261098830861008,-0.003994780153932195,0.006924285600149138
-0.18662072925638817,-0.02871088142405972,-10.25935496219734,-0.005859010892433886,-0.000798956030786439,0.005592692215505073
-0.06220690975212939,-0.2560053593645325,-9.888506077136569,-0.004527417507789821,0.0013315933846440651,0.006924285600149138
-0.2727533735285673,-0.10766580534022395,-9.709063068236196,-0.001864230738501691,0.002130549415430504,0.004793736184718634
0.3158196956646569,0.8780744568858264,-10.824002296870514,-0.005859010892433886,-0.006657966923220325,0.006657966923220325
-0.20336874342042302,-0.047851469040099535,-9.862187769164514,-0.000266318676928813,0.002130549415430504,0.006657966923220325
-0.3206048425686669,-0.06459948320413438,-9.608574983251986,-0.004793736184718634,0.001597912061572878,0.005060054861647447
-0.2153316106804479,-0.04545889558809456,-9.704277921332185,-0.006657966923220325,-0.0,0.00798956030786439
-0.1842281558043832,0.05263661594410949,-9.675567039908126,-0.005592692215505073,0.003195824123145756,0.006125329569362699
-0.15073212747631354,-0.21293903722844293,-9.77844769834434,-0.0026631867692881303,0.002396868092359317,0.006125329569362699
-0.1937984496124031,-0.48569241075701025,-9.67795961336013,-0.005060054861647447,0.003462142800074569,0.009587472369437269
-0.22729447794047278,-0.031103454876064696,-9.752129390372286,-0.003462142800074569,0.001597912061572878,0.005592692215505073
0.03588860178007465,-0.05263661594410949,-9.811943726672409,-0.001065274707715252,-0.000798956030786439,0.006125329569362699
-0.08852521772418413,-0.16748014164034836,-9.768877404536319,-0.004261098830861008,0.000266318676928813,0.005060054861647447
-0.22011675758445787,-0.12202124605225381,-9.58225667527993,-0.004527417507789821,-0.000266318676928813,0.005859010892433886
0.026318307972054745,-0.06938463010814433,-9.622930423964016,-0.0053263735385762605,-0.001597912061572878,0.005859010892433886
-0.047851469040099535,0.07416977701215428,-9.58225667527993,-0.003994780153932195,0.001065274707715252,0.004261098830861008
-0.05742176284811944,-0.05024404249210451,-9.589434395635946,-0.002130549415430504,0.002396868092359317,0.007456922954006764
-0.1124509522442339,-0.12919896640826875,-9.34539190353144,-0.005859010892433886,-0.001065274707715252,0.00798956030786439
-0.13876926021628866,-0.2153316106804479,-9.819121447028424,-0.002130549415430504,-0.004527417507789821,0.006125329569362699
-0.00717772035601493,0.0023925734520049767,-9.910039238204613,-0.004793736184718634,-0.0,0.005859010892433886
-0.06459948320413438,-0.0023925734520049767,-9.65881902574409,-0.002130549415430504,0.001597912061572878,0.006125329569362699
-0.08374007082017418,-0.20097616996841805,-9.728203655852235,-0.003994780153932195,-0.000532637353857626,0.005060054861647447
0.00717772035601493,-0.32299741602067183,-9.589434395635946,-0.006391648246291512,0.000266318676928813,0.006391648246291512
1.107761508278304,0.004785146904009953,-9.785625418700354,-0.005592692215505073,-0.00798956030786439,0.0071906042770779515
0.011962867260024884,0.009570293808019907,-9.402813666379558,-0.004527417507789821,0.005859010892433886,0.006657966923220325
-0.23207962484448275,-0.10766580534022395,-9.795195712508374,-0.003994780153932195,0.002396868092359317,0.006125329569362699
-0.24404249210450762,-0.09091779117618912,-9.699492774428176,-0.003728461477003382,-0.002130549415430504,0.0053263735385762605
-0.1124509522442339,-0.11005837879222893,-9.747344243468275,-0.003195824123145756,-0.002130549415430504,0.006924285600149138
-0.2560053593645325,-0.8565412958177816,-9.881328356780553,-0.003195824123145756,-0.0,0.003728461477003382
-0.11962867260024883,-0.011962867260024884,-9.637285864676047,-0.005859010892433886,-0.002929505446216943,0.0053263735385762605
-0.12441381950425878,-0.13876926021628866,-9.7593071107283,-0.004261098830861008,-0.000798956030786439,0.006125329569362699
-0.18183558235237823,0.03349602832806967,-9.656426452292086,-0.003462142800074569,0.001065274707715252,0.006924285600149138
0.05502918939611447,-0.06459948320413438,-9.809551153220404,-0.003462142800074569,-0.0026631867692881303,0.005060054861647447
-0.15551727438032348,0.03828117523207963,-9.62532299741602,-0.006391648246291512,0.002130549415430504,0.008522197661722016
-0.1746578619963633,0.016748014164034836,-9.510479471719782,-0.001597912061572878,-0.000798956030786439,0.006924285600149138
-0.004785146904009953,-0.08134749736816921,-9.546368073499856,-0.002130549415430504,-0.001065274707715252,0.004793736184718634
-0.1339841133122787,0.04545889558809456,-9.670781893004115,-0.0013315933846440651,0.001065274707715252,0.0053263735385762605
-1.1149392286343192,-0.4617666762369605,-8.491243181165663,-0.003462142800074569,0.003994780153932195,0.005859010892433886
-0.016748014164034836,-0.12680639295626375,-9.66838931955211,-0.005592692215505073,-0.006391648246291512,0.004793736184718634
0.009570293808019907,-0.22250933103646284,-9.878935783328549,-0.004261098830861008,-0.002929505446216943,0.006657966923220325
-0.08852521772418413,-0.1339841133122787,-9.847832328452483,-0.0053263735385762605,0.000266318676928813,0.007456922954006764
0.08852521772418413,0.03588860178007465,-9.75452196382429,-0.003195824123145756,0.000798956030786439,0.006657966923220325
-0.03828117523207963,0.009570293808019907,-9.7114556416882,-0.006125329569362699,0.002130549415430504,0.005060054861647447
-0.12202124605225381,-0.1842281558043832,-9.673174466456121,-0.000798956030786439,0.002929505446216943,0.005859010892433886
-0.10048808498420903,-0.11484352569623887,-9.63489329122404,-0.003728461477003382,-0.001065274707715252,0.0053263735385762605
-0.09570293808019907,-0.09091779117618912,-9.78323284524835,-0.001597912061572878,-0.000798956030786439,0.006391648246291512
-0.6794908603694134,-0.16030242128433345,-8.8453440520624,-0.003195824123145756,0.002929505446216943,0.002130549415430504
-0.102880658436214,-0.08374007082017418,-9.709063068236196,-0.005859010892433886,-0.0026631867692881303,0.006391648246291512
-0.06220690975212939,0.43784094171691074,-9.988994162120777,-0.003994780153932195,-0.006125329569362699,0.005592692215505073
-0.2249019044884678,-0.026318307972054745,-9.948320413436694,-0.005592692215505073,0.003728461477003382,0.006924285600149138
-0.0717772035601493,-0.05742176284811944,-9.73538137620825,-0.0013315933846440651,0.000798956030786439,0.006657966923220325
0.07416977701215428,0.011962867260024884,-9.589434395635946,-0.0013315933846440651,0.0013315933846440651,0.004261098830861008
-0.10766580534022395,-0.06938463010814433,-9.297540434491339,-0.0013315933846440651,-0.002130549415430504,0.009321153692508456
0.25122021246052256,0.3899894726768112,-9.65881902574409,-0.002396868092359317,-0.007723241630935577,0.0071906042770779515
-0.026318307972054745,0.04306632213608958,-9.694707627524165,-0.006125329569362699,0.000798956030786439,0.003728461477003382
-0.24164991865250265,-0.4210929275528759,-9.742559096564266,-0.002396868092359317,0.0026631867692881303,0.002929505446216943
-0.16030242128433345,-0.1124509522442339,-9.591826969087952,-0.005592692215505073,-0.001597912061572878,0.005060054861647447
-0.1124509522442339,0.05263661594410949,-9.785625418700354,-0.002396868092359317,0.001065274707715252,0.006657966923220325
-0.07416977701215428,-0.2153316106804479,-9.620537850512012,-0.004793736184718634,-0.0,0.006391648246291512
-0.11962867260024883,-0.15790984783232845,-9.584649248731937,-0.001065274707715252,-0.000266318676928813,0.007456922954006764
-0.2990716815006221,-0.08134749736816921,-9.532012632787827,-0.003195824123145756,-0.002396868092359317,0.0053263735385762605
-0.102880658436214,-0.1937984496124031,-9.639678438128051,-0.001864230738501691,0.000266318676928813,0.005859010892433886
-0.21054646377643796,-0.13637668676428366,-9.663604172648101,-0.0013315933846440651,0.001065274707715252,0.006125329569362699
-0.22729447794047278,-0.18183558235237823,-9.718633362044216,-0.005592692215505073,0.001597912061572878,0.0071906042770779515
-0.17705043544836827,-0.047851469040099535,-9.610967556703992,-0.001597912061572878,-0.000266318676928813,0.007456922954006764
-0.11005837879222893,-0.02871088142405972,-9.718633362044216,-0.004793736184718634,0.000266318676928813,0.004793736184718634
-0.05024404249210451,-0.02871088142405972,-9.790410565604365,-0.006125329569362699,0.001597912061572878,0.006125329569362699
-0.13876926021628866,-0.11005837879222893,-9.630108144320031,-0.004261098830861008,0.000798956030786439,0.006657966923220325
-0.2536127859125275,-0.2775385204325773,-9.862187769164514,-0.001597912061572878,-0.0,0.005859010892433886
-0.01435544071202986,0.009570293808019907,-9.895683797492584,-0.0053263735385762605,0.000532637353857626,0.006657966923220325
0.0717772035601493,0.06699205665613935,-9.977031294860753,-0.0026631867692881303,0.0013315933846440651,0.005060054861647447
-0.26557565317255244,-0.08852521772418413,-9.474590869939707,-0.002929505446216943,-0.001864230738501691,0.006924285600149138
-0.21772418413245287,-0.14116183366829363,-9.62532299741602,-0.004527417507789821,-0.0,0.005592692215505073
0.4832998373050053,-0.6029285099052542,-9.599004689443966,-0.005592692215505073,-0.007456922954006764,0.00878851633865083
-0.23207962484448275,-0.16748014164034836,-9.69710020097617,-0.0,0.002929505446216943,0.006657966923220325
-0.12202124605225381,-0.06699205665613935,-9.685137333716145,-0.0013315933846440651,-0.000798956030786439,0.005859010892433886
-0.1937984496124031,-0.12919896640826875,-9.665996746100106,-0.005859010892433886,-0.000532637353857626,0.006391648246291512
-0.12441381950425878,-0.7297349028615179,-9.651641305388075,-0.002929505446216943,0.002130549415430504,0.007456922954006764
-0.11005837879222893,-0.14116183366829363,-9.584649248731937,-0.002929505446216943,-0.002396868092359317,0.0071906042770779515
-0.14116183366829363,-0.03349602832806967,-9.661211599196095,-0.004527417507789821,-0.001065274707715252,0.006657966923220325
-0.17705043544836827,0.019140587616039813,-9.814336300124415,-0.004261098830861008,0.001864230738501691,0.009853791046366082
-0.16987271509235335,-0.07656235046415925,-9.596612115991961,-0.003462142800074569,0.0013315933846440651,0.005859010892433886
-0.27993109388458226,-0.13876926021628866,-9.790410565604365,-0.001597912061572878,-0.000266318676928813,0.006657966923220325
-0.4187003541008709,0.040673748684084604,-9.015216767154753,-0.003462142800074569,-0.001864230738501691,0.006125329569362699
-0.09331036462819409,-0.026318307972054745,-9.78323284524835,0.000266318676928813,0.000266318676928813,0.006924285600149138
-0.04545889558809456,-0.09091779117618912,-9.843047181548474,-0.001864230738501691,-0.0,0.0071906042770779515
-0.23207962484448275,-0.12919896640826875,-9.510479471719782,-0.002396868092359317,0.000798956030786439,0.007456922954006764
-0.09809551153220404,-0.34213800363671165,-9.69231505407216,-0.003994780153932195,0.002929505446216943,0.006125329569362699
-0.26079050626854244,-0.026318307972054745,-9.374102784955499,-0.003462142800074569,-0.0013315933846440651,0.006657966923220325
-0.07416977701215428,-0.08613264427217916,-9.86936548952053,-0.002929505446216943,0.000532637353857626,0.005060054861647447
-0.14116183366829363,0.06699205665613935,-9.694707627524165,-0.002130549415430504,-0.000266318676928813,0.004793736184718634
-0.03349602832806967,-0.09809551153220404,-9.699492774428176,0.000532637353857626,0.001065274707715252,0.006657966923220325
-0.29667910804861714,-0.13876926021628866,-9.821514020480429,-0.003462142800074569,-0.003462142800074569,0.005592692215505073
-0.17705043544836827,-0.12441381950425878,-9.74973681692028,-0.0013315933846440651,0.004261098830861008,0.0053263735385762605
-0.08852521772418413,0.004785146904009953,-9.747344243468275,-0.000798956030786439,-0.0013315933846440651,0.006924285600149138
-0.08374007082017418,-0.09331036462819409,-9.639678438128051,-0.006125329569362699,0.000798956030786439,0.0071906042770779515
-0.1746578619963633,-0.023925734520049768,-9.835869461192459,-0.0013315933846440651,0.000532637353857626,0.007456922954006764
-0.05024404249210451,0.05263661594410949,-9.76409225763231,-0.002929505446216943,-0.0,0.006657966923220325
0.05024404249210451,-0.14594698057230357,-9.72581108240023,-0.001864230738501691,-0.002929505446216943,0.006924285600149138
-0.16269499473633842,-0.15073212747631354,-9.503301751363768,-0.003462142800074569,-0.000798956030786439,0.005592692215505073
-0.15790984783232845,0.06938463010814433,-9.821514020480429,-0.0,-0.000532637353857626,0.006391648246291512
-0.09331036462819409,-0.0717772035601493,-9.661211599196095,-0.0026631867692881303,-0.000266318676928813,0.006391648246291512
0.026318307972054745,-0.18901330270839317,-9.646856158484066,-0.001065274707715252,0.000266318676928813,0.006125329569362699
-0.5263661594410949,0.10527323188821898,-10.053593645324913,-0.000798956030786439,-0.001864230738501691,0.0053263735385762605
-0.306249401856637,-0.18901330270839317,-9.780840271796345,-0.005592692215505073,0.003994780153932195,0.006924285600149138
-0.059814336300124414,-0.05502918939611447,-9.709063068236196,-0.002396868092359317,-0.0,0.006657966923220325
0.05502918939611447,0.07895492391616422,-9.584649248731937,-0.002396868092359317,-0.001864230738501691,0.007723241630935577
0.13876926021628866,-0.040673748684084604,-9.819121447028424,-0.003462142800074569,-0.000798956030786439,0.007456922954006764
-0.14833955402430857,0.040673748684084604,-9.630108144320031,-0.002130549415430504,-0.002396868092359317,0.005060054861647447
-0.4282706479088908,-0.2703608000765624,-9.539190353143843,-0.002130549415430504,0.0013315933846440651,0.00798956030786439
-0.08852521772418413,0.03349602832806967,-9.819121447028424,-0.001597912061572878,0.002130549415430504,0.00798956030786439
-0.14116183366829363,-0.09331036462819409,-9.682744760264141,-0.001065274707715252,-0.0,0.0071906042770779515
-0.14116183366829363,-0.1842281558043832,-9.78801799215236,-0.001597912061572878,0.0013315933846440651,0.006657966923220325
-0.06938463010814433,-0.22729447794047278,-10.091874820556992,-0.003462142800074569,-0.004261098830861008,0.006391648246291512
-0.1842281558043832,-0.1435544071202986,-9.654033878840082,-0.002929505446216943,0.003195824123145756,0.009054835015579642
0.03828117523207963,0.04306632213608958,-9.551153220403867,-0.001065274707715252,-0.0,0.0071906042770779515
0.023925734520049768,-0.16269499473633842,-9.493731457555748,-0.005859010892433886,-0.002130549415430504,0.005859010892433886
-0.16030242128433345,-0.3875968992248062,-9.541582926595847,-0.000532637353857626,0.001065274707715252,0.006924285600149138
-0.05742176284811944,-0.3014642549526271,-9.74016652311226,-0.000532637353857626,0.000266318676928813,0.0071906042770779515
-0.07416977701215428,-0.05742176284811944,-9.69710020097617,-0.002130549415430504,0.000266318676928813,0.0071906042770779515
-0.08613264427217916,-0.07895492391616422,-9.685137333716145,-0.003994780153932195,0.000266318676928813,0.006657966923220325
-0.11484352569623887,-0.102880658436214,-9.656426452292086,-0.001864230738501691,-0.000532637353857626,0.0071906042770779515
-0.1339841133122787,-0.12919896640826875,-9.685137333716145,-0.003462142800074569,-0.000798956030786439,0.006391648246291512
0.2990716815006221,0.2153316106804479,-11.113503684563117,-0.004261098830861008,-0.007723241630935577,0.00878851633865083
-0.10766580534022395,0.0023925734520049767,-9.632500717772036,0.000266318676928813,-0.000798956030786439,0.004793736184718634
0.40673748684084604,0.026318307972054745,-8.900373241458514,0.000532637353857626,0.006924285600149138,0.006391648246291512
-0.18662072925638817,-0.12441381950425878,-9.68752990716815,-0.003195824123145756,0.0013315933846440651,0.005060054861647447
0.03349602832806967,0.03828117523207963,-9.78323284524835,-0.002396868092359317,-0.000532637353857626,0.006924285600149138
-0.1435544071202986,-0.15551727438032348,-9.665996746100106,-0.001864230738501691,0.003462142800074569,0.008255878984793203
-0.1531247009283185,-0.10766580534022395,-9.603789836347977,-0.003994780153932195,0.003994780153932195,0.0053263735385762605
-0.21054646377643796,-0.05742176284811944,-9.654033878840082,-0.004261098830861008,0.000532637353857626,0.0053263735385762605
-0.05502918939611447,-0.10766580534022395,-9.811943726672409,-0.000266318676928813,0.000266318676928813,0.006391648246291512
-0.09570293808019907,-0.040673748684084604,-9.649248731936071,-0.002130549415430504,0.000266318676928813,0.00798956030786439
0.2583979328165375,-0.40673748684084604,-9.14441573356302,-0.001065274707715252,-0.003195824123145756,0.006125329569362699
-0.10527323188821898,-0.07416977701215428,-9.558330940759882,-0.0053263735385762605,0.001597912061572878,0.0071906042770779515
-0.19140587616039814,-0.06220690975212939,-9.587041822183942,0.0026631867692881303,0.001065274707715252,0.008255878984793203
-0.09331036462819409,0.0023925734520049767,-9.821514020480429,-0.004527417507789821,-0.0013315933846440651,0.003728461477003382
-0.17944300890037326,-0.17226528854435832,-9.70188534788018,-0.001065274707715252,-0.0013315933846440651,0.005592692215505073
-0.25122021246052256,0.02871088142405972,-9.76409225763231,-0.001864230738501691,-0.000532637353857626,0.006391648246291512
0.0717772035601493,-0.6938463010814432,-9.883720930232558,-0.002130549415430504,0.0026631867692881303,0.007456922954006764
0.031103454876064696,-0.3014642549526271,-9.799980859412385,-0.0013315933846440651,0.002396868092359317,0.006125329569362699
-0.08374007082017418,0.0023925734520049767,-9.694707627524165,-0.0013315933846440651,-0.0013315933846440651,0.007723241630935577
-0.03349602832806967,-0.059814336300124414,-9.596612115991961,-0.002396868092359317,0.000798956030786439,0.006125329569362699
0.5455067470571346,-0.4163077806488659,-9.948320413436694,-0.0053263735385762605,-0.002396868092359317,0.008522197661722016
0.10766580534022395,0.03588860178007465,-9.553545793855871,0.001065274707715252,-0.003994780153932195,0.006657966923220325
0.06220690975212939,-0.06699205665613935,-9.78323284524835,-0.004793736184718634,-0.0013315933846440651,0.006125329569362699
-0.18183558235237823,-0.06220690975212939,-9.419561680543593,0.000266318676928813,0.0013315933846440651,0.008255878984793203
-0.20336874342042302,-0.18183558235237823,-9.704277921332185,-0.003195824123145756,0.002130549415430504,0.0071906042770779515
-0.11962867260024883,0.07656235046415925,-9.960283280696718,-0.004793736184718634,0.004527417507789821,0.009587472369437269
-0.2249019044884678,-0.09331036462819409,-9.515264618623792,0.000532637353857626,0.0013315933846440651,0.005592692215505073
-0.14833955402430857,-0.2536127859125275,-9.575078954923917,0.000798956030786439,0.0013315933846440651,0.007456922954006764
-0.0,0.2249019044884678,-9.9028615178486,-0.002396868092359317,-0.000798956030786439,0.006125329569362699
-0.016748014164034836,-0.1124509522442339,-9.433917121255623,-0.0013315933846440651,-0.002130549415430504,0.006391648246291512
0.1531247009283185,0.11962867260024883,-9.89329122404058,-0.004527417507789821,-0.001864230738501691,0.010120109723294895
-0.040673748684084604,-0.13637668676428366,-9.682744760264141,0.001597912061572878,-0.003462142800074569,0.006924285600149138
-0.06220690975212939,-0.09570293808019907,-9.716240788592211,-0.001065274707715252,-0.003195824123145756,0.006924285600149138
-0.02153316106804479,-0.14833955402430857,-9.73538137620825,-0.001864230738501691,0.001597912061572878,0.006391648246291512
-0.06699205665613935,-0.21293903722844293,-9.73059622930424,-0.003195824123145756,-0.0,0.005859010892433886
-0.15073212747631354,-0.16987271509235335,-9.69710020097617,-0.000798956030786439,0.001065274707715252,0.006125329569362699
-0.031103454876064696,-0.09091779117618912,-9.476983443391713,-0.0,-0.001065274707715252,0.003994780153932195
0.04545889558809456,-0.03349602832806967,-9.65881902574409,-0.003728461477003382,0.001065274707715252,0.008522197661722016
-0.24882763900851756,-0.15551727438032348,-9.713848215140205,-0.000532637353857626,0.000266318676928813,0.005592692215505073
-0.21293903722844293,-0.0717772035601493,-9.67795961336013,-0.002396868092359317,-0.001864230738501691,0.0071906042770779515
-0.3899894726768112,0.2751459469805723,-9.833476887740455,-0.0013315933846440651,-0.003994780153932195,0.00798956030786439
-0.16987271509235335,-0.016748014164034836,-9.912431811656619,-0.001065274707715252,-0.0,0.007723241630935577
-0.10527323188821898,0.04545889558809456,-9.766484831084314,-0.001065274707715252,0.0013315933846440651,0.008255878984793203
-0.18662072925638817,-0.13876926021628866,-9.68752990716815,-0.003994780153932195,-0.001597912061572878,0.0071906042770779515
-0.08613264427217916,-0.303856828404632,-9.601397262895972,0.001597912061572878,-0.000266318676928813,0.007456922954006764
-0.3469231505407216,-0.4210929275528759,-10.118193128529047,-0.000266318676928813,-0.003195824123145756,0.010386428400223708
-0.20336874342042302,-0.05024404249210451,-9.814336300124415,-0.004261098830861008,0.002130549415430504,0.003994780153932195
-0.16030242128433345,0.06938463010814433,-9.68752990716815,-0.001864230738501691,0.000532637353857626,0.00878851633865083
-0.06938463010814433,-0.14833955402430857,-9.680352186812136,-0.000266318676928813,0.000532637353857626,0.006391648246291512
-0.09091779117618912,-0.17944300890037326,-9.790410565604365,-0.003195824123145756,-0.001864230738501691,0.006391648246291512
0.24404249210450762,0.3971671930328261,-10.13972628959709,-0.003462142800074569,-0.00798956030786439,0.005859010892433886
-0.2583979328165375,-0.11723609914824386,-9.682744760264141,-0.0013315933846440651,-0.0026631867692881303,0.006657966923220325
-0.02871088142405972,-0.28232366733658726,-9.663604172648101,-0.003994780153932195,-0.000532637353857626,0.007456922954006764
-0.10048808498420903,-0.0717772035601493,-9.747344243468275,-0.0,0.001065274707715252,0.005859010892433886
-0.3349602832806967,-0.205761316872428,-9.69231505407216,-0.000266318676928813,0.001065274707715252,0.006391648246291512
0.040673748684084604,-0.411522633744856,-9.596612115991961,-0.002929505446216943,0.0026631867692881303,0.006125329569362699
0.047851469040099535,-0.11723609914824386,-9.871758062972534,-0.000532637353857626,-0.005859010892433886,0.009054835015579642
-0.13637668676428366,-0.23925734520049766,-9.503301751363768,-0.002130549415430504,0.001065274707715252,0.008522197661722016
0.18662072925638817,-0.24164991865250265,-9.656426452292086,-0.001065274707715252,0.000266318676928813,0.0071906042770779515
0.004785146904009953,-0.0717772035601493,-9.761699684180305,-0.002929505446216943,-0.002929505446216943,0.005859010892433886
-0.8350081347497369,-0.5742176284811944,-9.22097808402718,0.000798956030786439,-0.0053263735385762605,0.0053263735385762605
-0.2560053593645325,0.0023925734520049767,-9.615752703608,-0.005060054861647447,0.003195824123145756,0.0071906042770779515
-0.24404249210450762,-0.2368647717484927,-9.8071585797684,-0.002396868092359317,0.0013315933846440651,0.0071906042770779515
-0.2249019044884678,0.01435544071202986,-9.73538137620825,-0.000266318676928813,-0.0013315933846440651,0.006924285600149138
-0.08852521772418413,-0.07895492391616422,-9.737773949660255,-0.0013315933846440651,-0.0,0.006391648246291512
-0.02153316106804479,-0.12202124605225381,-9.553545793855871,-0.001864230738501691,-0.000532637353857626,0.005859010892433886
-0.21054646377643796,-0.08134749736816921,-10.015312470092832,-0.003195824123145756,0.004793736184718634,0.007723241630935577
-0.09809551153220404,-0.04545889558809456,-9.685137333716145,-0.0,-0.002130549415430504,0.005859010892433886
-0.17944300890037326,-0.2775385204325773,-9.376495358407503,-0.002130549415430504,-0.002130549415430504,0.005859010892433886
-0.1339841133122787,-0.023925734520049768,-10.005742176284812,-0.002929505446216943,-0.000266318676928813,0.006924285600149138
-0.06699205665613935,-0.14833955402430857,-9.905254091300604,-0.005592692215505073,0.002130549415430504,0.006657966923220325
0.05263661594410949,-0.24882763900851756,-9.766484831084314,-0.000532637353857626,-0.003994780153932195,0.005859010892433886
-0.026318307972054745,0.016748014164034836,-9.804766006316395,-0.0026631867692881303,-0.000798956030786439,0.0053263735385762605
-0.06459948320413438,-0.15551727438032348,-9.66838931955211,-0.000532637353857626,0.0013315933846440651,0.005859010892433886
-0.19858359651641305,-0.08613264427217916,-9.723418508948225,-0.002130549415430504,-0.000266318676928813,0.0071906042770779515
-0.23925734520049766,-0.3708488850607714,-9.680352186812136,-0.004261098830861008,-0.003462142800074569,0.00798956030786439
0.016748014164034836,-0.15073212747631354,-9.656426452292086,-0.001065274707715252,-0.001864230738501691,0.008255878984793203
-0.2368647717484927,-0.19619102306440808,-9.622930423964016,-0.004261098830861008,-0.000266318676928813,0.005859010892433886
-0.22250933103646284,-0.16987271509235335,-9.599004689443966,-0.002396868092359317,-0.003195824123145756,0.0071906042770779515
-0.047851469040099535,-0.1842281558043832,-9.811943726672409,-0.000532637353857626,-0.0,0.0071906042770779515
0.24882763900851756,-0.18901330270839317,-9.314288448655374,-0.001065274707715252,-0.006125329569362699,0.006924285600149138
-0.3588860178007465,-0.09091779117618912,-9.606182409799981,-0.0026631867692881303,0.003728461477003382,0.007723241630935577
-0.0023925734520049767,-0.04545889558809456,-9.713848215140205,-0.000532637353857626,-0.0013315933846440651,0.005060054861647447
-0.059814336300124414,-0.12919896640826875,-9.74495167001627,-0.0026631867692881303,-0.000532637353857626,0.007723241630935577
-0.37802660541678634,-0.18183558235237823,-9.570293808019906,-0.005592692215505073,-0.001065274707715252,0.009853791046366082
-0.2249019044884678,-0.06699205665613935,-10.036845631160878,-0.003462142800074569,0.003462142800074569,0.007456922954006764
-0.16748014164034836,-0.059814336300124414,-9.72102593549622,-0.004793736184718634,0.001065274707715252,0.008522197661722016
-0.07895492391616422,-0.12680639295626375,-9.606182409799981,-0.002929505446216943,-0.001065274707715252,0.004527417507789821
-0.1650875681883434,-0.24404249210450762,-9.527227485883817,-0.000798956030786439,-0.001065274707715252,0.006391648246291512
-0.17226528854435832,-0.11484352569623887,-9.618145277060007,-0.002396868092359317,0.000798956030786439,0.007723241630935577
-0.12441381950425878,-0.25122021246052256,-9.804766006316395,-0.0013315933846440651,0.001065274707715252,0.007723241630935577
-0.15551727438032348,-0.16030242128433345,-9.685137333716145,-0.002396868092359317,-0.004527417507789821,0.006924285600149138
0.14833955402430857,0.00717772035601493,-9.86936548952053,-0.000798956030786439,-0.0,0.007456922954006764
-0.06938463010814433,-0.22011675758445787,-9.66838931955211,-0.004793736184718634,0.000798956030786439,0.004793736184718634
-0.918748205569911,-0.25122021246052256,-8.345296200593358,-0.005060054861647447,0.003728461477003382,0.006924285600149138
0.05742176284811944,-0.12919896640826875,-9.704277921332185,0.003195824123145756,-0.007456922954006764,0.009587472369437269
-0.13159153986027372,-0.031103454876064696,-9.804766006316395,-0.002396868092359317,-0.000798956030786439,0.008522197661722016
-0.21054646377643796,-0.13876926021628866,-9.771269977988325,-0.0013315933846440651,-0.001597912061572878,0.004261098830861008
0.13159153986027372,-0.08374007082017418,-9.606182409799981,-0.003195824123145756,-0.000266318676928813,0.006391648246291512
-0.07656235046415925,-0.06459948320413438,-9.761699684180305,-0.000266318676928813,-0.000532637353857626,0.006657966923220325
-0.0717772035601493,0.07656235046415925,-9.433917121255623,-0.006391648246291512,0.0053263735385762605,0.004793736184718634
-0.9354962197339459,0.20336874342042302,-9.421954253995597,-0.001597912061572878,0.002929505446216943,0.004261098830861008
-0.2775385204325773,-0.10527323188821898,-9.716240788592211,-0.005060054861647447,-0.001864230738501691,0.005592692215505073
-0.11005837879222893,-0.3660637381567614,-9.575078954923917,-0.005060054861647447,-0.0013315933846440651,0.005060054861647447
-0.23925734520049766,-0.2727533735285673,-9.732988802756244,0.000798956030786439,-0.000266318676928813,0.006657966923220325
-0.19140587616039814,-0.13637668676428366,-9.577471528375922,-0.001864230738501691,-0.000532637353857626,0.005859010892433886
-0.0717772035601493,0.02153316106804479,-9.63489329122404,-0.001597912061572878,-0.003728461477003382,0.006125329569362699
-0.08852521772418413,-0.08613264427217916,-9.73538137620825,-0.003728461477003382,-0.000266318676928813,0.006125329569362699
-0.12919896640826875,-0.08852521772418413,-9.804766006316395,-0.003728461477003382,0.001597912061572878,0.006391648246291512
-0.09570293808019907,-0.004785146904009953,-9.680352186812136,-0.005592692215505073,-0.000266318676928813,0.007723241630935577
-0.04306632213608958,-0.08613264427217916,-9.58225667527993,-0.003994780153932195,0.001597912061572878,0.005859010892433886
0.1339841133122787,0.25122021246052256,-9.84065460809647,-0.0053263735385762605,0.000266318676928813,0.006924285600149138
-0.10527323188821898,-0.21054646377643796,-9.69710020097617,-0.003994780153932195,0.002929505446216943,0.005060054861647447
-0.011962867260024884,-0.20336874342042302,-9.981816441764762,-0.001065274707715252,-0.002396868092359317,0.008522197661722016
-0.02871088142405972,-0.03588860178007465,-9.72581108240023,-0.005859010892433886,-0.0,0.005060054861647447
-0.16987271509235335,-0.23925734520049766,-9.596612115991961,-0.001065274707715252,-0.001065274707715252,0.00798956030786439
-0.15790984783232845,0.03828117523207963,-9.622930423964016,-0.006125329569362699,-0.000798956030786439,0.006391648246291512
-0.10048808498420903,-0.13637668676428366,-9.610967556703992,-0.003195824123145756,-0.0,0.006391648246291512
-0.11005837879222893,-0.040673748684084604,-9.599004689443966,-0.004793736184718634,-0.000798956030786439,0.006657966923220325
-0.2536127859125275,-0.09331036462819409,-9.747344243468275,-0.004261098830861008,-0.000532637353857626,0.006924285600149138
-0.2249019044884678,-0.1650875681883434,-9.524834912431812,-0.002396868092359317,-0.002929505446216943,0.008255878984793203
0.03588860178007465,0.05024404249210451,-9.888506077136569,-0.007456922954006764,-0.0013315933846440651,0.006391648246291512
-0.10527323188821898,-0.07416977701215428,-9.718633362044216,-0.000798956030786439,0.000266318676928813,0.006125329569362699
-0.8469710020097617,1.134079816250359,-9.053497942386832,-0.003195824123145756,0.003462142800074569,0.005592692215505073
0.01435544071202986,-0.08374007082017418,-9.680352186812136,-0.000532637353857626,-0.006391648246291512,0.006924285600149138
0.04306632213608958,0.05263661594410949,-9.69710020097617,-0.005859010892433886,-0.0026631867692881303,0.007456922954006764
-0.00717772035601493,-0.040673748684084604,-9.512872045171788,-0.003728461477003382,0.001065274707715252,0.005592692215505073
-0.22729447794047278,-0.026318307972054745,-9.627715570868027,-0.003195824123145756,-0.000266318676928813,0.007723241630935577
-0.2249019044884678,-0.1746578619963633,-9.546368073499856,-0.0053263735385762605,0.000798956030786439,0.008255878984793203
-0.01435544071202986,-0.2583979328165375,-9.718633362044216,-0.0026631867692881303,-0.002130549415430504,0.006924285600149138
-0.2847162407885922,0.03828117523207963,-8.866877213130444,-0.006657966923220325,-0.009054835015579642,0.00798956030786439
-0.16269499473633842,-0.08374007082017418,-9.74016652311226,-0.001597912061572878,0.000532637353857626,0.0071906042770779515
0.019140587616039813,-0.2775385204325773,-9.584649248731937,-0.003462142800074569,0.004261098830861008,0.006391648246291512
-0.3588860178007465,1.6724088429514787,-8.699397071490095,-0.007456922954006764,0.005859010892433886,0.009853791046366082
-0.09331036462819409,-0.0717772035601493,-10.020097616996843,-0.003994780153932195,-0.003462142800074569,0.005592692215505073
-0.12441381950425878,-0.19140587616039814,-9.833476887740455,-0.004793736184718634,0.000798956030786439,0.003728461477003382
-0.2990716815006221,-0.17705043544836827,-9.433917121255623,-0.003462142800074569,-0.001864230738501691,0.006924285600149138
-0.21293903722844293,-0.03349602832806967,-9.70667049478419,-0.004793736184718634,0.002130549415430504,0.006657966923220325
-0.08374007082017418,-0.16748014164034836,-9.682744760264141,-0.001597912061572878,-0.000532637353857626,0.0053263735385762605
-0.16030242128433345,0.0,-9.74495167001627,-0.006391648246291512,0.000266318676928813,0.007456922954006764
-0.26557565317255244,-0.33256770982869177,-9.85022490190449,-0.002396868092359317,-0.000532637353857626,0.007456922954006764
-0.031103454876064696,-0.16987271509235335,-9.776055124892334,-0.003728461477003382,0.001065274707715252,0.006391648246291512
-0.08852521772418413,-0.6316393913293138,-9.486553737199733,-0.005859010892433886,0.006391648246291512,0.009587472369437269
-0.13159153986027372,-0.16269499473633842,-9.79280313905637,-0.002929505446216943,-0.003195824123145756,0.004793736184718634
-0.06699205665613935,-0.12202124605225381,-9.622930423964016,-0.005859010892433886,0.000798956030786439,0.00878851633865083
0.059814336300124414,-0.11484352569623887,-9.728203655852235,-0.003728461477003382,-0.0,0.007723241630935577
-0.016748014164034836,-0.20336874342042302,-9.771269977988325,-0.005859010892433886,0.002130549415430504,0.00798956030786439
-0.009570293808019907,-0.1842281558043832,-9.79758828596038,-0.003195824123145756,-0.001065274707715252,0.0053263735385762605
-0.26318307972054744,0.026318307972054745,-9.74973681692028,-0.005859010892433886,0.003728461477003382,0.006657966923220325
0.026318307972054745,-0.16987271509235335,-9.866972916068525,-0.005592692215505073,0.000798956030786439,0.005060054861647447
-0.4019523399368361,0.0023925734520049767,-9.713848215140205,-0.002130549415430504,0.012516977815654211,0.003462142800074569
-0.2249019044884678,-0.1531247009283185,-9.584649248731937,-0.003462142800074569,-0.0026631867692881303,0.0053263735385762605
-0.14116183366829363,-0.004785146904009953,-9.680352186812136,-0.006391648246291512,0.003195824123145756,0.005859010892433886
-0.28232366733658726,-0.619676524069289,-9.261651832711264,-0.005060054861647447,0.002130549415430504,0.0071906042770779515
-0.07895492391616422,-0.22011675758445787,-9.522442338979808,-0.004261098830861008,-0.0013315933846440651,0.00878851633865083
-0.13876926021628866,-0.17944300890037326,-9.732988802756244,-0.005859010892433886,-0.000798956030786439,0.00878851633865083
0.02871088142405972,-0.11962867260024883,-9.72581108240023,-0.0026631867692881303,-0.001065274707715252,0.006924285600149138
-0.10766580534022395,-0.06220690975212939,-9.596612115991961,-0.004261098830861008,0.002396868092359317,0.006924285600149138
-0.12202124605225381,-0.12680639295626375,-9.661211599196095,-0.003195824123145756,-0.001065274707715252,0.006924285600149138
-0.23925734520049766,-0.23447219829648772,-9.926787252368648,-0.004261098830861008,0.0013315933846440651,0.005060054861647447
-0.019140587616039813,-0.45458895588094556,-9.752129390372286,-0.003728461477003382,-0.002929505446216943,0.008522197661722016
0.03349602832806967,0.03588860178007465,-9.639678438128051,-0.003994780153932195,-0.003462142800074569,0.001864230738501691
-0.18183558235237823,-0.15073212747631354,-9.728203655852235,-0.002929505446216943,0.001864230738501691,0.0053263735385762605
-0.13637668676428366,-0.13876926021628866,-9.709063068236196,-0.005592692215505073,-0.003462142800074569,0.006125329569362699
-0.17226528854435832,-0.01435544071202986,-9.723418508948225,-0.005592692215505073,0.0026631867692881303,0.003994780153932195
-0.2153316106804479,-0.26079050626854244,-9.630108144320031,-0.0026631867692881303,-0.000798956030786439,0.005060054861647447
-0.18662072925638817,0.019140587616039813,-9.874150636424538,-0.005060054861647447,0.000532637353857626,0.005060054861647447
-0.1339841133122787,-0.14594698057230357,-9.529620059335823,-0.006391648246291512,0.002929505446216943,0.00798956030786439
-0.31103454876064696,-0.1937984496124031,-9.587041822183942,-0.003462142800074569,0.001065274707715252,0.005060054861647447
-0.27993109388458226,-0.22968705139247775,-9.66838931955211,-0.004793736184718634,0.000266318676928813,0.0071906042770779515
-0.22011675758445787,0.023925734520049768,-10.524930615369893,-0.002396868092359317,-0.0,0.005592692215505073
-0.3971671930328261,-0.11005837879222893,-10.328739592305485,-0.004793736184718634,0.000532637353857626,0.006125329569362699
-0.26318307972054744,-0.07656235046415925,-10.23542922767729,-0.004793736184718634,-0.002396868092359317,0.008255878984793203
-0.11005837879222893,-0.12202124605225381,-9.689922480620156,-0.0053263735385762605,-0.0026631867692881303,0.006391648246291512
-0.15551727438032348,-0.047851469040099535,-9.620537850512012,-0.004793736184718634,-0.001597912061572878,0.005060054861647447
-0.19858359651641305,-0.05742176284811944,-9.665996746100106,-0.005592692215505073,0.000532637353857626,0.005859010892433886
-0.09091779117618912,-0.06220690975212939,-9.7114556416882,-0.003728461477003382,0.000798956030786439,0.009587472369437269
-0.2153316106804479,-0.03588860178007465,-9.665996746100106,-0.004793736184718634,0.001065274707715252,0.006391648246291512
-0.02871088142405972,-0.03588860178007465,-9.661211599196095,-0.004527417507789821,-0.001065274707715252,0.007456922954006764
-0.2560053593645325,-0.06220690975212939,-9.723418508948225,-0.0053263735385762605,0.001864230738501691,0.006391648246291512
0.4282706479088908,-0.507225571825055,-9.496124031007753,-0.003728461477003382,-0.003195824123145756,0.004793736184718634
0.04306632213608958,0.0,-9.795195712508374,-0.003994780153932195,-0.003462142800074569,0.003994780153932195
-0.11962867260024883,0.05263661594410949,-9.689922480620156,-0.004793736184718634,-0.0026631867692881303,0.006657966923220325
-0.16987271509235335,-0.09091779117618912,-9.718633362044216,-0.006391648246291512,-0.000798956030786439,0.0053263735385762605
-0.19858359651641305,-0.2583979328165375,-9.74973681692028,-0.003994780153932195,-0.001864230738501691,0.006657966923220325
-0.06699205665613935,-0.1124509522442339,-9.924394678916643,-0.005060054861647447,0.001597912061572878,0.00878851633865083
0.06220690975212939,-0.031103454876064696,-9.68752990716815,-0.002130549415430504,-0.002396868092359317,0.006391648246291512
-0.18901330270839317,-0.0023925734520049767,-9.752129390372286,-0.004793736184718634,0.000266318676928813,0.0053263735385762605
-0.15551727438032348,-0.07416977701215428,-9.70188534788018,-0.004261098830861008,0.000532637353857626,0.006924285600149138
-0.14116183366829363,-0.06220690975212939,-9.558330940759882,-0.005060054861647447,-0.000266318676928813,0.006924285600149138
-0.059814336300124414,-0.18901330270839317,-9.835869461192459,-0.004793736184718634,-0.0026631867692881303,0.005592692215505073
-0.047851469040099535,-0.06699205665613935,-9.900468944396593,-0.002396868092359317,-0.002929505446216943,0.00798956030786439
-0.15073212747631354,-0.11962867260024883,-9.642071011580056,-0.005592692215505073,0.002396868092359317,0.005859010892433886
0.01435544071202986,-0.04545889558809456,-9.69710020097617,-0.0053263735385762605,-0.001864230738501691,0.006391648246291512
-0.23207962484448275,-0.2249019044884678,-9.575078954923917,-0.003462142800074569,0.001065274707715252,0.006924285600149138
-0.1937984496124031,-0.13876926021628866,-9.802373432864389,-0.006391648246291512,-0.002396868092359317,0.004261098830861008
-0.15551727438032348,-0.308641975308642,-9.78323284524835,-0.006125329569362699,0.001597912061572878,0.005592692215505073
-0.07895492391616422,-0.11005837879222893,-9.649248731936071,-0.003728461477003382,0.001065274707715252,0.005859010892433886
0.004785146904009953,0.011962867260024884,-9.572686381471911,-0.0026631867692881303,-0.001065274707715252,0.006657966923220325
-0.12919896640826875,-0.01435544071202986,-9.75452196382429,-0.005859010892433886,0.000266318676928813,0.0053263735385762605
-0.44023351516891573,-0.40673748684084604,-10.355057900277538,-0.004527417507789821,-0.006924285600149138,0.005859010892433886
-0.15790984783232845,-0.10527323188821898,-9.603789836347977,-0.002130549415430504,0.001065274707715252,0.00878851633865083
0.03349602832806967,0.02871088142405972,-9.776055124892334,-0.005592692215505073,-0.001597912061572878,0.005060054861647447
-0.20097616996841805,-0.0023925734520049767,-9.709063068236196,-0.001597912061572878,0.000532637353857626,0.005859010892433886
0.009570293808019907,-0.13637668676428366,-9.845439755000479,-0.005859010892433886,-0.0,0.007723241630935577
0.016748014164034836,0.6675279931093885,-9.2305483778352,-0.0053263735385762605,-0.001597912061572878,0.005592692215505073
-0.308641975308642,-0.0717772035601493,-9.663604172648101,-0.004793736184718634,0.001864230738501691,0.005859010892433886
-0.05024404249210451,-0.031103454876064696,-9.718633362044216,-0.0026631867692881303,-0.001065274707715252,0.005592692215505073
-0.18662072925638817,0.11005837879222893,-9.527227485883817,-0.005859010892433886,0.000532637353857626,0.006657966923220325
-0.15790984783232845,-0.1531247009283185,-9.637285864676047,-0.003462142800074569,-0.0,0.008255878984793203
-0.03349602832806967,-0.5455067470571346,-8.73050052636616,-0.005592692215505073,-0.000532637353857626,0.0071906042770779515
-0.22250933103646284,-0.16987271509235335,-9.718633362044216,-0.005859010892433886,-0.000532637353857626,0.004793736184718634
-0.09809551153220404,-0.05502918939611447,-9.639678438128051,-0.003728461477003382,0.000798956030786439,0.005592692215505073
-0.32538998947267683,-0.20097616996841805,-9.761699684180305,-0.003728461477003382,0.001065274707715252,0.003462142800074569
-0.03349602832806967,-0.09570293808019907,-9.689922480620156,-0.0026631867692881303,-0.004261098830861008,0.003994780153932195
-0.07656235046415925,-0.24404249210450762,-9.66838931955211,-0.005060054861647447,0.002396868092359317,0.006391648246291512
-0.31103454876064696,0.059814336300124414,-9.431524547803619,-0.002396868092359317,-0.001864230738501691,0.006391648246291512
-0.026318307972054745,-0.02871088142405972,-9.723418508948225,-0.005592692215505073,0.001597912061572878,0.009321153692508456
-0.2536127859125275,-0.0717772035601493,-9.835869461192459,-0.004261098830861008,-0.0026631867692881303,0.007456922954006764
-0.2679682266245574,0.09331036462819409,-9.699492774428176,-0.001864230738501691,-0.001864230738501691,0.006391648246291512
-0.1124509522442339,-0.2560053593645325,-10.292850990525409,-0.004793736184718634,-0.003195824123145756,0.0071906042770779515
-0.2560053593645325,-0.03349602832806967,-9.532012632787827,-0.003462142800074569,-0.001597912061572878,0.00798956030786439
-0.16748014164034836,-0.17705043544836827,-9.579864101827926,-0.005060054861647447,0.000266318676928813,0.0071906042770779515
-0.14594698057230357,-0.07656235046415925,-9.642071011580056,-0.0026631867692881303,0.001864230738501691,0.005060054861647447
-0.15790984783232845,-0.05024404249210451,-9.613360130155996,-0.005060054861647447,-0.000266318676928813,0.006924285600149138
0.11723609914824386,-0.019140587616039813,-9.388458225667529,-0.003462142800074569,-0.000532637353857626,0.006657966923220325
-0.06699205665613935,-0.205761316872428,-9.68752990716815,-0.004793736184718634,0.000266318676928813,0.007456922954006764
0.18662072925638817,-0.15790984783232845,-9.900468944396593,-0.005592692215505073,0.001864230738501691,0.004793736184718634
-0.17944300890037326,-0.17944300890037326,-9.651641305388075,-0.001065274707715252,-0.000532637353857626,0.006125329569362699
-0.11005837879222893,-0.06699205665613935,-9.866972916068525,-0.004793736184718634,0.000532637353857626,0.006125329569362699
-0.1746578619963633,-0.22250933103646284,-9.615752703608,-0.003195824123145756,-0.005060054861647447,0.0071906042770779515
-0.10527323188821898,-0.0717772035601493,-9.780840271796345,-0.004793736184718634,-0.000798956030786439,0.004793736184718634
-0.11723609914824386,-0.12680639295626375,-9.601397262895972,-0.0026631867692881303,-0.001597912061572878,0.0071906042770779515
-0.009570293808019907,-0.12919896640826875,-9.79280313905637,-0.003462142800074569,0.0013315933846440651,0.005060054861647447
-0.1842281558043832,-0.21772418413245287,-9.73059622930424,-0.002130549415430504,-0.001864230738501691,0.005592692215505073
-0.2871088142405972,0.040673748684084604,-9.479376016843718,-0.002396868092359317,0.008522197661722016,0.009853791046366082
-0.42348550100488086,0.102880658436214,-9.036749928222797,-0.005859010892433886,0.0026631867692881303,0.005859010892433886
-0.20336874342042302,-0.03588860178007465,-9.543975500047852,-0.000532637353857626,-0.003195824123145756,0.006125329569362699
-0.3158196956646569,-0.07416977701215428,-9.804766006316395,-0.0053263735385762605,-0.000266318676928813,0.007456922954006764
-0.06220690975212939,-0.15551727438032348,-9.58225667527993,-0.000798956030786439,0.000532637353857626,0.0053263735385762605
-0.08134749736816921,0.09091779117618912,-9.630108144320031,-0.003462142800074569,-0.003462142800074569,0.007456922954006764
-0.09570293808019907,-0.08134749736816921,-9.630108144320031,-0.002929505446216943,-0.000266318676928813,0.007723241630935577
-0.2249019044884678,-0.10527323188821898,-8.68264905732606,-0.002396868092359317,0.002396868092359317,0.006924285600149138
0.026318307972054745,-0.047851469040099535,-9.977031294860753,-0.008255878984793203,-0.006391648246291512,0.005592692215505073
-0.10527323188821898,-0.1124509522442339,-9.577471528375922,0.0013315933846440651,-0.000798956030786439,0.006391648246291512
-0.10527323188821898,-0.06459948320413438,-9.651641305388075,-0.006391648246291512,-0.000798956030786439,0.006391648246291512
-0.15551727438032348,-0.047851469040099535,-9.65881902574409,-0.0026631867692881303,-0.000532637353857626,0.0071906042770779515
-0.09570293808019907,-0.07656235046415925,-9.72102593549622,-0.002130549415430504,-0.001864230738501691,0.006657966923220325
-0.12919896640826875,-0.14116183366829363,-9.673174466456121,-0.002396868092359317,0.000532637353857626,0.006924285600149138
-0.102880658436214,-0.11723609914824386,-9.67795961336013,-0.003195824123145756,-0.000266318676928813,0.006657966923220325
-0.14833955402430857,-0.15790984783232845,-9.665996746100106,-0.001864230738501691,-0.000798956030786439,0.006391648246291512
-0.07416977701215428,-0.05502918939611447,-9.656426452292086,-0.003728461477003382,-0.000798956030786439,0.006391648246291512
-0.14116183366829363,-0.05263661594410949,-9.651641305388075,-0.003994780153932195,-0.001597912061572878,0.006657966923220325
-0.13159153986027372,-0.11962867260024883,-9.70667049478419,-0.003994780153932195,-0.001597912061572878,0.006125329569362699
-0.1124509522442339,-0.047851469040099535,-9.737773949660255,-0.0053263735385762605,0.000266318676928813,0.006391648246291512
-0.15551727438032348,-0.1124509522442339,-9.651641305388075,-0.0026631867692881303,-0.002130549415430504,0.006391648246291512
-0.06938463010814433,-0.102880658436214,-9.73538137620825,-0.003195824123145756,-0.000798956030786439,0.006391648246291512
-0.1746578619963633,-0.13159153986027372,-9.649248731936071,-0.002130549415430504,-0.001065274707715252,0.0071906042770779515
-0.11723609914824386,-0.0717772035601493,-9.73538137620825,-0.003994780153932195,-0.001597912061572878,0.006125329569362699
-0.1124509522442339,-0.026318307972054745,-9.62532299741602,-0.001065274707715252,0.000532637353857626,0.006924285600149138
-0.12441381950425878,-0.023925734520049768,-9.74016652311226,-0.0026631867692881303,-0.001065274707715252,0.006657966923220325
-0.1339841133122787,-0.14116183366829363,-9.70188534788018,-0.005060054861647447,0.000266318676928813,0.006125329569362699
-0.12202124605225381,-0.1650875681883434,-9.69231505407216,-0.003195824123145756,-0.001597912061572878,0.005859010892433886
-0.15073212747631354,-0.09570293808019907,-9.689922480620156,-0.005859010892433886,0.000798956030786439,0.006657966923220325
-0.11484352569623887,-0.102880658436214,-9.675567039908126,-0.0013315933846440651,-0.0,0.007723241630935577
-0.1124509522442339,-0.06220690975212939,-9.675567039908126,-0.003195824123145756,-0.0013315933846440651,0.0071906042770779515
-0.1435544071202986,-0.09570293808019907,-9.67795961336013,-0.001065274707715252,-0.0,0.006125329569362699
-0.08613264427217916,-0.05024404249210451,-9.70188534788018,-0.002929505446216943,-0.001597912061572878,0.005859010892433886
-0.1435544071202986,-0.10527323188821898,-9.649248731936071,-0.005060054861647447,0.000266318676928813,0.006657966923220325
-0.12202124605225381,-0.11005837879222893,-9.704277921332185,-0.002396868092359317,-0.000532637353857626,0.0071906042770779515
-0.09091779117618912,-0.0717772035601493,-9.70667049478419,-0.005060054861647447,-0.000266318676928813,0.005859010892433886
-0.11484352569623887,-0.11484352569623887,-9.70188534788018,-0.002396868092359317,-0.0013315933846440651,0.007456922954006764
-0.08134749736816921,-0.04306632213608958,-9.7114556416882,-0.002929505446216943,-0.000532637353857626,0.0071906042770779515
-0.11005837879222893,-0.14594698057230357,-9.66838931955211,-0.0013315933846440651,-0.000532637353857626,0.006391648246291512
-0.11005837879222893,-0.031103454876064696,-9.651641305388075,-0.002396868092359317,-0.001597912061572878,0.0071906042770779515
-0.12919896640826875,-0.15790984783232845,-9.646856158484066,-0.000798956030786439,-0.000266318676928813,0.006391648246291512
-0.1124509522442339,-0.06220690975212939,-9.699492774428176,-0.002929505446216943,-0.001065274707715252,0.006657966923220325
-0.07416977701215428,-0.03588860178007465,-9.69231505407216,-0.003728461477003382,-0.000798956030786439,0.006657966923220325
-0.06220690975212939,-0.08374007082017418,-9.709063068236196,-0.001597912061572878,-0.0013315933846440651,0.006924285600149138
-0.12202124605225381,0.026318307972054745,-9.728203655852235,-0.005060054861647447,-0.000266318676928813,0.006391648246291512
-0.09570293808019907,-0.06938463010814433,-9.718633362044216,-0.001864230738501691,-0.000798956030786439,0.005859010892433886
-0.11962867260024883,-0.05742176284811944,-9.646856158484066,-0.0013315933846440651,-0.001065274707715252,0.007456922954006764
-0.10527323188821898,-0.12441381950425878,-9.69231505407216,-0.000532637353857626,-0.000798956030786439,0.006657966923220325
-0.1435544071202986,-0.09091779117618912,-9.673174466456121,-0.001864230738501691,-0.001065274707715252,0.006125329569362699
-0.09570293808019907,-0.00717772035601493,-9.713848215140205,-0.004261098830861008,-0.0,0.006125329569362699
-0.12919896640826875,-0.059814336300124414,-9.689922480620156,-0.002130549415430504,-0.001597912061572878,0.0071906042770779515
-0.09809551153220404,-0.023925734520049768,-9.7114556416882,-0.004261098830861008,-0.0013315933846440651,0.0071906042770779515
-0.14116183366829363,-0.06938463010814433,-9.718633362044216,-0.002130549415430504,-0.000266318676928813,0.006391648246291512
-0.13876926021628866,-0.026318307972054745,-9.70667049478419,-0.003462142800074569,-0.001065274707715252,0.006924285600149138
-0.09091779117618912,-0.09570293808019907,-9.64446358503206,-0.002396868092359317,-0.000798956030786439,0.007723241630935577
-0.1650875681883434,-0.08134749736816921,-9.7114556416882,-0.001864230738501691,-0.000266318676928813,0.0071906042770779515
-0.08613264427217916,-0.16269499473633842,-9.63489329122404,-0.000532637353857626,-0.001597912061572878,0.006924285600149138
-0.14116183366829363,-0.05502918939611447,-9.654033878840082,-0.001597912061572878,0.000532637353857626,0.006924285600149138
-0.059814336300124414,-0.01435544071202986,-9.639678438128051,-0.002929505446216943,-0.001597912061572878,0.006125329569362699
-0.14116183366829363,-0.06459948320413438,-9.74495167001627,-0.000798956030786439,-0.0,0.006924285600149138
-0.11005837879222893,-0.0023925734520049767,-9.642071011580056,-0.003994780153932195,-0.001864230738501691,0.005592692215505073
-0.14116183366829363,-0.06220690975212939,-9.718633362044216,-0.002396868092359317,-0.000532637353857626,0.0071906042770779515
-0.14594698057230357,-0.0717772035601493,-9.728203655852235,-0.001065274707715252,0.000266318676928813,0.006125329569362699
-0.12202124605225381,-0.12919896640826875,-9.661211599196095,-0.000798956030786439,-0.000798956030786439,0.0071906042770779515
-0.14116183366829363,-0.18183558235237823,-9.7114556416882,-0.001597912061572878,0.000532637353857626,0.006125329569362699
-0.06938463010814433,-0.16269499473633842,-9.66838931955211,-0.002396868092359317,-0.000798956030786439,0.0071906042770779515
-0.14594698057230357,-0.059814336300124414,-9.713848215140205,-0.002130549415430504,-0.000266318676928813,0.007456922954006764
-0.09570293808019907,-0.05742176284811944,-9.646856158484066,-0.002130549415430504,-0.001597912061572878,0.006391648246291512
-0.13876926021628866,-0.12441381950425878,-9.665996746100106,-0.0013315933846440651,-0.000266318676928813,0.006657966923220325
-0.10048808498420903,-0.07895492391616422,-9.704277921332185,-0.002929505446216943,-0.000798956030786439,0.006924285600149138
-0.10766580534022395,-0.15551727438032348,-9.689922480620156,-0.001864230738501691,-0.002396868092359317,0.006924285600149138
-0.11005837879222893,-0.09809551153220404,-9.756914537276295,-0.002396868092359317,-0.000798956030786439,0.006125329569362699
-0.14116183366829363,-0.16748014164034836,-9.673174466456121,-0.0013315933846440651,-0.0013315933846440651,0.006924285600149138
-0.12919896640826875,-0.1435544071202986,-9.72581108240023,-0.002130549415430504,0.000532637353857626,0.006657966923220325
-0.11484352569623887,-0.07656235046415925,-9.661211599196095,-0.002396868092359317,-0.002130549415430504,0.006657966923220325
-0.14594698057230357,-0.09809551153220404,-9.72581108240023,-0.001864230738501691,-0.0,0.007456922954006764
-0.11723609914824386,-0.08134749736816921,-9.675567039908126,-0.0026631867692881303,-0.0026631867692881303,0.006657966923220325
-0.14116183366829363,-0.16269499473633842,-9.694707627524165,-0.001597912061572878,0.000266318676928813,0.006924285600149138
-0.13159153986027372,-0.04306632213608958,-9.689922480620156,-0.002130549415430504,0.000266318676928813,0.0071906042770779515
-0.13637668676428366,-0.1842281558043832,-9.756914537276295,-0.002396868092359317,-0.001864230738501691,0.006125329569362699
-0.1339841133122787,-0.07416977701215428,-9.716240788592211,-0.000798956030786439,0.000532637353857626,0.006924285600149138
-0.1124509522442339,-0.06699205665613935,-9.680352186812136,-0.002396868092359317,-0.001597912061572878,0.006125329569362699
-0.11484352569623887,-0.08613264427217916,-9.704277921332185,-0.001864230738501691,0.000532637353857626,0.006924285600149138
-0.11723609914824386,0.0023925734520049767,-9.675567039908126,-0.0026631867692881303,-0.000798956030786439,0.0071906042770779515
-0.15551727438032348,-0.11723609914824386,-9.69710020097617,-0.001864230738501691,0.000798956030786439,0.006125329569362699
-0.08852521772418413,-0.12202124605225381,-9.663604172648101,-0.001864230738501691,-0.001597912061572878,0.006391648246291512
-0.15790984783232845,-0.16269499473633842,-9.682744760264141,-0.001864230738501691,-0.002130549415430504,0.006657966923220325
-0.14116183366829363,-0.06459948320413438,-9.651641305388075,-0.001597912061572878,0.000532637353857626,0.007456922954006764
-0.12441381950425878,-0.17226528854435832,-9.73538137620825,-0.001864230738501691,-0.002130549415430504,0.006924285600149138
-0.1124509522442339,-0.08374007082017418,-9.665996746100106,-0.001597912061572878,-0.000266318676928813,0.007723241630935577
-0.13159153986027372,-0.16269499473633842,-9.673174466456121,-0.001864230738501691,-0.0013315933846440651,0.006657966923220325
-0.1124509522442339,-0.13637668676428366,-9.661211599196095,-0.001065274707715252,0.000532637353857626,0.006391648246291512
-0.15073212747631354,-0.06699205665613935,-9.70667049478419,-0.001864230738501691,-0.000532637353857626,0.006125329569362699
-0.07895492391616422,-0.1339841133122787,-9.68752990716815,-0.001065274707715252,-0.0,0.007456922954006764
-0.11005837879222893,-0.02871088142405972,-9.73538137620825,-0.001597912061572878,-0.000798956030786439,0.006391648246291512
-0.13159153986027372,-0.14833955402430857,-9.694707627524165,-0.001065274707715252,-0.002929505446216943,0.006125329569362699
-0.11962867260024883,-0.10527323188821898,-9.7114556416882,-0.0013315933846440651,-0.0,0.0071906042770779515
-0.11962867260024883,-0.18662072925638817,-9.69710020097617,-0.002396868092359317,-0.001065274707715252,0.006924285600149138
-0.19140587616039814,-0.16269499473633842,-9.64446358503206,-0.001597912061572878,-0.000798956030786439,0.007723241630935577
-0.08613264427217916,-0.04306632213608958,-9.73059622930424,-0.0013315933846440651,-0.001065274707715252,0.0071906042770779515
-0.11484352569623887,-0.11723609914824386,-9.654033878840082,-0.001065274707715252,-0.000532637353857626,0.006924285600149138
-0.12441381950425878,-0.04306632213608958,-9.73538137620825,-0.003195824123145756,-0.000266318676928813,0.006657966923220325
-0.09091779117618912,-0.16030242128433345,-9.649248731936071,-0.001597912061572878,-0.0013315933846440651,0.006391648246291512
-0.07895492391616422,-0.1531247009283185,-9.685137333716145,-0.0013315933846440651,-0.000266318676928813,0.006924285600149138
-0.1124509522442339,-0.15073212747631354,-9.673174466456121,-0.002396868092359317,-0.000532637353857626,0.007456922954006764
-0.11484352569623887,-0.10048808498420903,-9.65881902574409,-0.0013315933846440651,-0.001065274707715252,0.006924285600149138
-0.13876926021628866,-0.1339841133122787,-9.670781893004115,-0.002929505446216943,-0.001597912061572878,0.005592692215505073
-0.14594698057230357,-0.09809551153220404,-9.694707627524165,-0.001597912061572878,-0.000266318676928813,0.0071906042770779515
-0.09809551153220404,-0.07895492391616422,-9.685137333716145,-0.002396868092359317,0.000532637353857626,0.0071906042770779515
-0.09331036462819409,-0.08134749736816921,-9.670781893004115,-0.0013315933846440651,-0.001065274707715252,0.0071906042770779515
-0.13637668676428366,-0.08134749736816921,-9.709063068236196,-0.001597912061572878,-0.000266318676928813,0.0071906042770779515
-0.1124509522442339,-0.1339841133122787,-9.62532299741602,-0.0026631867692881303,-0.002929505446216943,0.006924285600149138
-0.07656235046415925,-0.20815389032443296,-9.67795961336013,-0.0013315933846440651,-0.000798956030786439,0.007456922954006764
-0.102880658436214,-0.06459948320413438,-9.639678438128051,-0.0026631867692881303,-0.0013315933846440651,0.006924285600149138
-0.06699205665613935,-0.1746578619963633,-9.68752990716815,-0.001864230738501691,-0.000266318676928813,0.006924285600149138
-0.11723609914824386,-0.03588860178007465,-9.627715570868027,-0.002396868092359317,-0.0,0.0071906042770779515
-0.09570293808019907,-0.15790984783232845,-9.73538137620825,-0.0013315933846440651,-0.0013315933846440651,0.006924285600149138
-0.15790984783232845,-0.059814336300124414,-9.70667049478419,-0.001864230738501691,0.000798956030786439,0.006657966923220325
-0.1339841133122787,-0.09809551153220404,-9.680352186812136,-0.0013315933846440651,-0.001065274707715252,0.006657966923220325
-0.12202124605225381,-0.07656235046415925,-9.72102593549622,-0.002130549415430504,-0.001065274707715252,0.007456922954006764
-0.12919896640826875,-0.08134749736816921,-9.70667049478419,-0.001864230738501691,-0.000532637353857626,0.006924285600149138
-0.05024404249210451,-0.08134749736816921,-9.699492774428176,-0.003462142800074569,0.000266318676928813,0.006125329569362699
-0.11005837879222893,-0.12441381950425878,-9.66838931955211,-0.001864230738501691,-0.0013315933846440651,0.0071906042770779515
-0.10527323188821898,-0.12919896640826875,-9.69231505407216,-0.001065274707715252,-0.000798956030786439,0.006657966923220325
-0.12202124605225381,-0.11005837879222893,-9.69710020097617,-0.0026631867692881303,0.000266318676928813,0.005859010892433886
-0.11962867260024883,-0.1531247009283185,-9.718633362044216,-0.000798956030786439,-0.002130549415430504,0.006924285600149138
-0.12202124605225381,-0.10766580534022395,-9.689922480620156,-0.001597912061572878,0.000266318676928813,0.006125329569362699
-0.11484352569623887,-0.16748014164034836,-9.69231505407216,-0.001864230738501691,-0.002396868092359317,0.006657966923220325
-0.17944300890037326,-0.11962867260024883,-9.682744760264141,-0.001864230738501691,0.001597912061572878,0.006657966923220325
-0.09570293808019907,-0.13159153986027372,-9.713848215140205,-0.001065274707715252,-0.001864230738501691,0.0071906042770779515
-0.15790984783232845,-0.12441381950425878,-9.699492774428176,-0.0013315933846440651,-0.0,0.006924285600149138
-0.11962867260024883,-0.11962867260024883,-9.716240788592211,-0.004261098830861008,-0.001065274707715252,0.006657966923220325
-0.11005837879222893,-0.12441381950425878,-9.742559096564266,-0.002929505446216943,-0.001597912061572878,0.0071906042770779515
-0.13876926021628866,-0.13637668676428366,-9.685137333716145,-0.001597912061572878,0.000266318676928813,0.006924285600149138
-0.12202124605225381,-0.09331036462819409,-9.66838931955211,-0.002396868092359317,-0.001864230738501691,0.0071906042770779515
-0.07656235046415925,-0.12441381950425878,-9.66838931955211,-0.0013315933846440651,0.0013315933846440651,0.006125329569362699
-0.09809551153220404,-0.14594698057230357,-9.680352186812136,-0.002130549415430504,-0.001597912061572878,0.0071906042770779515
-0.09091779117618912,-0.12680639295626375,-9.656426452292086,-0.000532637353857626,-0.0,0.006657966923220325
-0.10766580534022395,-0.1124509522442339,-9.680352186812136,-0.0013315933846440651,-0.001065274707715252,0.006125329569362699
-0.09091779117618912,-0.08852521772418413,-9.665996746100106,-0.001597912061572878,0.000798956030786439,0.0071906042770779515
-0.12441381950425878,-0.09570293808019907,-9.64446358503206,-0.002396868092359317,0.000532637353857626,0.006924285600149138
-0.13876926021628866,-0.11723609914824386,-9.680352186812136,-0.002396868092359317,-0.001597912061572878,0.006657966923220325
-0.1435544071202986,-0.18183558235237823,-9.646856158484066,-0.001597912061572878,0.000266318676928813,0.006924285600149138
-0.10048808498420903,-0.059814336300124414,-9.665996746100106,-0.002396868092359317,-0.001597912061572878,0.008522197661722016
-0.16987271509235335,-0.09331036462819409,-9.694707627524165,-0.0026631867692881303,0.000532637353857626,0.006125329569362699
-0.09570293808019907,-0.15790984783232845,-9.685137333716145,-0.002130549415430504,-0.000798956030786439,0.0071906042770779515
-0.14833955402430857,-0.1650875681883434,-9.656426452292086,-0.002396868092359317,0.001065274707715252,0.006924285600149138
-0.09809551153220404,-0.16030242128433345,-9.575078954923917,-0.0013315933846440651,-0.001597912061572878,0.006391648246291512
-0.1124509522442339,-0.09331036462819409,-9.622930423964016,-0.002130549415430504,-0.001864230738501691,0.006391648246291512
-0.12919896640826875,-0.1435544071202986,-9.699492774428176,-0.001065274707715252,0.000266318676928813,0.006391648246291512
-0.06220690975212939,-0.11005837879222893,-9.675567039908126,-0.0026631867692881303,-0.0013315933846440651,0.0071906042770779515
-0.11484352569623887,-0.1746578619963633,-9.661211599196095,-0.001065274707715252,-0.000798956030786439,0.0071906042770779515
-0.102880658436214,-0.09570293808019907,-9.656426452292086,-0.001864230738501691,-0.0013315933846440651,0.006657966923220325
-0.09809551153220404,-0.10048808498420903,-9.649248731936071,-0.001864230738501691,-0.0,0.006657966923220325
-0.03828117523207963,-0.1531247009283185,-9.732988802756244,-0.002396868092359317,-0.001864230738501691,0.007456922954006764
-0.13637668676428366,-0.1124509522442339,-9.656426452292086,-0.0013315933846440651,0.000532637353857626,0.006657966923220325
-0.11723609914824386,-0.14833955402430857,-9.685137333716145,-0.0013315933846440651,-0.000532637353857626,0.0071906042770779515
